# 
#                 ----------------------------------------------------
#                 Data from a 3D direct N-body simulation. 
# 
#                 rows are i-particle; 
#                 coumns are :mass, tag, x ,y, z, vx, vy, vz, ax, ay, az
# 
#                 NTHU, Computational Physics 
# 
#                 ----------------------------------------------------
#                 Time = 0.0
0.000000000000000000e+00 1.000000000000000000e+00 2.000000000000000000e+00 3.000000000000000000e+00 4.000000000000000000e+00 5.000000000000000000e+00 6.000000000000000000e+00 7.000000000000000000e+00 8.000000000000000000e+00 9.000000000000000000e+00 1.000000000000000000e+01 1.100000000000000000e+01 1.200000000000000000e+01 1.300000000000000000e+01 1.400000000000000000e+01 1.500000000000000000e+01 1.600000000000000000e+01 1.700000000000000000e+01 1.800000000000000000e+01 1.900000000000000000e+01 2.000000000000000000e+01 2.100000000000000000e+01 2.200000000000000000e+01 2.300000000000000000e+01 2.400000000000000000e+01 2.500000000000000000e+01 2.600000000000000000e+01 2.700000000000000000e+01 2.800000000000000000e+01 2.900000000000000000e+01 3.000000000000000000e+01 3.100000000000000000e+01 3.200000000000000000e+01 3.300000000000000000e+01 3.400000000000000000e+01 3.500000000000000000e+01 3.600000000000000000e+01 3.700000000000000000e+01 3.800000000000000000e+01 3.900000000000000000e+01 4.000000000000000000e+01 4.100000000000000000e+01 4.200000000000000000e+01 4.300000000000000000e+01 4.400000000000000000e+01 4.500000000000000000e+01 4.600000000000000000e+01 4.700000000000000000e+01 4.800000000000000000e+01 4.900000000000000000e+01 5.000000000000000000e+01 5.100000000000000000e+01 5.200000000000000000e+01 5.300000000000000000e+01 5.400000000000000000e+01 5.500000000000000000e+01 5.600000000000000000e+01 5.700000000000000000e+01 5.800000000000000000e+01 5.900000000000000000e+01 6.000000000000000000e+01 6.100000000000000000e+01 6.200000000000000000e+01 6.300000000000000000e+01 6.400000000000000000e+01 6.500000000000000000e+01 6.600000000000000000e+01 6.700000000000000000e+01 6.800000000000000000e+01 6.900000000000000000e+01 7.000000000000000000e+01 7.100000000000000000e+01 7.200000000000000000e+01 7.300000000000000000e+01 7.400000000000000000e+01 7.500000000000000000e+01 7.600000000000000000e+01 7.700000000000000000e+01 7.800000000000000000e+01 7.900000000000000000e+01 8.000000000000000000e+01 8.100000000000000000e+01 8.200000000000000000e+01 8.300000000000000000e+01 8.400000000000000000e+01 8.500000000000000000e+01 8.600000000000000000e+01 8.700000000000000000e+01 8.800000000000000000e+01 8.900000000000000000e+01 9.000000000000000000e+01 9.100000000000000000e+01 9.200000000000000000e+01 9.300000000000000000e+01 9.400000000000000000e+01 9.500000000000000000e+01 9.600000000000000000e+01 9.700000000000000000e+01 9.800000000000000000e+01 9.900000000000000000e+01 1.000000000000000000e+02 1.010000000000000000e+02 1.020000000000000000e+02 1.030000000000000000e+02 1.040000000000000000e+02 1.050000000000000000e+02 1.060000000000000000e+02 1.070000000000000000e+02 1.080000000000000000e+02 1.090000000000000000e+02 1.100000000000000000e+02 1.110000000000000000e+02 1.120000000000000000e+02 1.130000000000000000e+02 1.140000000000000000e+02 1.150000000000000000e+02 1.160000000000000000e+02 1.170000000000000000e+02 1.180000000000000000e+02 1.190000000000000000e+02 1.200000000000000000e+02 1.210000000000000000e+02 1.220000000000000000e+02 1.230000000000000000e+02 1.240000000000000000e+02 1.250000000000000000e+02 1.260000000000000000e+02 1.270000000000000000e+02 1.280000000000000000e+02 1.290000000000000000e+02 1.300000000000000000e+02 1.310000000000000000e+02 1.320000000000000000e+02 1.330000000000000000e+02 1.340000000000000000e+02 1.350000000000000000e+02 1.360000000000000000e+02 1.370000000000000000e+02 1.380000000000000000e+02 1.390000000000000000e+02 1.400000000000000000e+02 1.410000000000000000e+02 1.420000000000000000e+02 1.430000000000000000e+02 1.440000000000000000e+02 1.450000000000000000e+02 1.460000000000000000e+02 1.470000000000000000e+02 1.480000000000000000e+02 1.490000000000000000e+02 1.500000000000000000e+02 1.510000000000000000e+02 1.520000000000000000e+02 1.530000000000000000e+02 1.540000000000000000e+02 1.550000000000000000e+02 1.560000000000000000e+02 1.570000000000000000e+02 1.580000000000000000e+02 1.590000000000000000e+02 1.600000000000000000e+02 1.610000000000000000e+02 1.620000000000000000e+02 1.630000000000000000e+02 1.640000000000000000e+02 1.650000000000000000e+02 1.660000000000000000e+02 1.670000000000000000e+02 1.680000000000000000e+02 1.690000000000000000e+02 1.700000000000000000e+02 1.710000000000000000e+02 1.720000000000000000e+02 1.730000000000000000e+02 1.740000000000000000e+02 1.750000000000000000e+02 1.760000000000000000e+02 1.770000000000000000e+02 1.780000000000000000e+02 1.790000000000000000e+02 1.800000000000000000e+02 1.810000000000000000e+02 1.820000000000000000e+02 1.830000000000000000e+02 1.840000000000000000e+02 1.850000000000000000e+02 1.860000000000000000e+02 1.870000000000000000e+02 1.880000000000000000e+02 1.890000000000000000e+02 1.900000000000000000e+02 1.910000000000000000e+02 1.920000000000000000e+02 1.930000000000000000e+02 1.940000000000000000e+02 1.950000000000000000e+02 1.960000000000000000e+02 1.970000000000000000e+02 1.980000000000000000e+02 1.990000000000000000e+02 2.000000000000000000e+02 2.010000000000000000e+02 2.020000000000000000e+02 2.030000000000000000e+02 2.040000000000000000e+02 2.050000000000000000e+02 2.060000000000000000e+02 2.070000000000000000e+02 2.080000000000000000e+02 2.090000000000000000e+02 2.100000000000000000e+02 2.110000000000000000e+02 2.120000000000000000e+02 2.130000000000000000e+02 2.140000000000000000e+02 2.150000000000000000e+02 2.160000000000000000e+02 2.170000000000000000e+02 2.180000000000000000e+02 2.190000000000000000e+02 2.200000000000000000e+02 2.210000000000000000e+02 2.220000000000000000e+02 2.230000000000000000e+02 2.240000000000000000e+02
4.444444444444444614e-02 4.444444444444444614e-02 4.444444444444444614e-02 4.444444444444444614e-02 4.444444444444444614e-02 4.444444444444444614e-02 4.444444444444444614e-02 4.444444444444444614e-02 4.444444444444444614e-02 4.444444444444444614e-02 4.444444444444444614e-02 4.444444444444444614e-02 4.444444444444444614e-02 4.444444444444444614e-02 4.444444444444444614e-02 4.444444444444444614e-02 4.444444444444444614e-02 4.444444444444444614e-02 4.444444444444444614e-02 4.444444444444444614e-02 4.444444444444444614e-02 4.444444444444444614e-02 4.444444444444444614e-02 4.444444444444444614e-02 4.444444444444444614e-02 4.444444444444444614e-02 4.444444444444444614e-02 4.444444444444444614e-02 4.444444444444444614e-02 4.444444444444444614e-02 4.444444444444444614e-02 4.444444444444444614e-02 4.444444444444444614e-02 4.444444444444444614e-02 4.444444444444444614e-02 4.444444444444444614e-02 4.444444444444444614e-02 4.444444444444444614e-02 4.444444444444444614e-02 4.444444444444444614e-02 4.444444444444444614e-02 4.444444444444444614e-02 4.444444444444444614e-02 4.444444444444444614e-02 4.444444444444444614e-02 4.444444444444444614e-02 4.444444444444444614e-02 4.444444444444444614e-02 4.444444444444444614e-02 4.444444444444444614e-02 4.444444444444444614e-02 4.444444444444444614e-02 4.444444444444444614e-02 4.444444444444444614e-02 4.444444444444444614e-02 4.444444444444444614e-02 4.444444444444444614e-02 4.444444444444444614e-02 4.444444444444444614e-02 4.444444444444444614e-02 4.444444444444444614e-02 4.444444444444444614e-02 4.444444444444444614e-02 4.444444444444444614e-02 4.444444444444444614e-02 4.444444444444444614e-02 4.444444444444444614e-02 4.444444444444444614e-02 4.444444444444444614e-02 4.444444444444444614e-02 4.444444444444444614e-02 4.444444444444444614e-02 4.444444444444444614e-02 4.444444444444444614e-02 4.444444444444444614e-02 4.444444444444444614e-02 4.444444444444444614e-02 4.444444444444444614e-02 4.444444444444444614e-02 4.444444444444444614e-02 4.444444444444444614e-02 4.444444444444444614e-02 4.444444444444444614e-02 4.444444444444444614e-02 4.444444444444444614e-02 4.444444444444444614e-02 4.444444444444444614e-02 4.444444444444444614e-02 4.444444444444444614e-02 4.444444444444444614e-02 4.444444444444444614e-02 4.444444444444444614e-02 4.444444444444444614e-02 4.444444444444444614e-02 4.444444444444444614e-02 4.444444444444444614e-02 4.444444444444444614e-02 4.444444444444444614e-02 4.444444444444444614e-02 4.444444444444444614e-02 4.444444444444444614e-02 4.444444444444444614e-02 4.444444444444444614e-02 4.444444444444444614e-02 4.444444444444444614e-02 4.444444444444444614e-02 4.444444444444444614e-02 4.444444444444444614e-02 4.444444444444444614e-02 4.444444444444444614e-02 4.444444444444444614e-02 4.444444444444444614e-02 4.444444444444444614e-02 4.444444444444444614e-02 4.444444444444444614e-02 4.444444444444444614e-02 4.444444444444444614e-02 4.444444444444444614e-02 4.444444444444444614e-02 4.444444444444444614e-02 4.444444444444444614e-02 4.444444444444444614e-02 4.444444444444444614e-02 4.444444444444444614e-02 4.444444444444444614e-02 4.444444444444444614e-02 4.444444444444444614e-02 4.444444444444444614e-02 4.444444444444444614e-02 4.444444444444444614e-02 4.444444444444444614e-02 4.444444444444444614e-02 4.444444444444444614e-02 4.444444444444444614e-02 4.444444444444444614e-02 4.444444444444444614e-02 4.444444444444444614e-02 4.444444444444444614e-02 4.444444444444444614e-02 4.444444444444444614e-02 4.444444444444444614e-02 4.444444444444444614e-02 4.444444444444444614e-02 4.444444444444444614e-02 4.444444444444444614e-02 4.444444444444444614e-02 4.444444444444444614e-02 4.444444444444444614e-02 4.444444444444444614e-02 4.444444444444444614e-02 4.444444444444444614e-02 4.444444444444444614e-02 4.444444444444444614e-02 4.444444444444444614e-02 4.444444444444444614e-02 4.444444444444444614e-02 4.444444444444444614e-02 4.444444444444444614e-02 4.444444444444444614e-02 4.444444444444444614e-02 4.444444444444444614e-02 4.444444444444444614e-02 4.444444444444444614e-02 4.444444444444444614e-02 4.444444444444444614e-02 4.444444444444444614e-02 4.444444444444444614e-02 4.444444444444444614e-02 4.444444444444444614e-02 4.444444444444444614e-02 4.444444444444444614e-02 4.444444444444444614e-02 4.444444444444444614e-02 4.444444444444444614e-02 4.444444444444444614e-02 4.444444444444444614e-02 4.444444444444444614e-02 4.444444444444444614e-02 4.444444444444444614e-02 4.444444444444444614e-02 4.444444444444444614e-02 4.444444444444444614e-02 4.444444444444444614e-02 4.444444444444444614e-02 4.444444444444444614e-02 4.444444444444444614e-02 4.444444444444444614e-02 4.444444444444444614e-02 4.444444444444444614e-02 4.444444444444444614e-02 4.444444444444444614e-02 4.444444444444444614e-02 4.444444444444444614e-02 4.444444444444444614e-02 4.444444444444444614e-02 4.444444444444444614e-02 4.444444444444444614e-02 4.444444444444444614e-02 4.444444444444444614e-02 4.444444444444444614e-02 4.444444444444444614e-02 4.444444444444444614e-02 4.444444444444444614e-02 4.444444444444444614e-02 4.444444444444444614e-02 4.444444444444444614e-02 4.444444444444444614e-02 4.444444444444444614e-02 4.444444444444444614e-02 4.444444444444444614e-02 4.444444444444444614e-02 4.444444444444444614e-02 4.444444444444444614e-02 4.444444444444444614e-02 4.444444444444444614e-02 4.444444444444444614e-02 4.444444444444444614e-02 4.444444444444444614e-02 4.444444444444444614e-02 4.444444444444444614e-02 4.444444444444444614e-02 4.444444444444444614e-02 4.444444444444444614e-02 4.444444444444444614e-02 4.444444444444444614e-02
-1.151134261061285358e+00 -9.272970235479042200e-01 1.361688034986856533e+00 1.547639631382830672e+00 1.791169019560423736e+00 6.082644436386194231e-01 -4.061389749386023484e-01 -1.134103905471452789e+00 -8.436533119804298098e-01 8.953896013682252075e-01 -1.232559332942481135e-02 5.358439826352722202e-01 3.481260343321375128e+00 -7.852041203656910939e-01 -2.839062864100133088e-01 2.369979936654519614e-01 2.406511043899561275e-01 4.326794323150544991e-02 1.840300891320353072e-01 -2.190060047216928485e+00 4.443020617452955734e-02 -5.997462569572516167e-02 -2.682661994834323771e+00 1.117310111296443864e+00 -6.849584487954848977e-02 -2.371579387050898324e-02 8.629935904637098254e-01 2.904428628853112371e-01 2.976523574808400130e-01 -1.587540280446382068e+00 -4.980318422014192170e-01 7.495803722028676619e-01 9.282562299217929080e-01 -1.768745355262947072e+00 4.736605899932260777e-01 -4.409853498567666286e+00 2.364191201043864154e+00 -4.320094565430931399e-01 -3.042894851484998497e-01 2.842279508914827280e-01 4.459670744796279673e-01 6.601578432513981465e-01 1.452637184031976503e+00 1.028736222234067077e-01 -6.076088419577285737e-01 1.724727945631643333e+00 1.798536573356492196e+00 -1.781396251113390505e+00 2.037152269848368835e+00 5.742441287713834219e-02 9.898156461373214254e-01 -3.661541045291277774e-01 -2.475465926900487779e-01 -5.645040818965627594e-01 1.383014878300985906e+00 -2.867964012261517426e-01 -1.234125189472017881e-01 5.439375444060302600e-01 1.854960878361431795e-02 -6.771971986180294056e-01 7.625703019388044290e-02 -2.787854535238077913e-01 -8.009149322948976302e-01 1.766091771647664843e-01 -1.117603111352157175e+00 -4.887069179946862962e-01 -3.017584783447154195e-01 5.701539430065044600e-01 1.872902468303312862e+00 -1.224001930036814345e+00 2.343724796617380202e-02 1.907139068839866503e-01 4.283589852158798950e-01 5.123315623299813382e-01 5.273952391760756697e-01 1.110934034467687959e-02 1.636687982228927224e-02 3.323158068008792987e-01 1.736968653334701518e+00 -2.482786826003284542e-01 -1.122892632584022304e-01 -4.684984724169694026e-01 6.882462088691924107e-01 -3.252177697068504569e-01 -1.457306581822191971e+00 -1.453417446893347842e+00 -1.004764679996960730e+00 1.774780080154895412e+00 -4.697804683245594415e-01 -2.871221628121232716e-01 6.462527794521805147e-01 3.457117690438935020e-01 4.145339124864685365e-01 2.517986390145507514e+00 2.445023031866537799e-01 -4.391439098583294065e-01 -8.077006011710197164e-01 -1.634368999281544665e+00 3.892014197606544101e+00 -4.273316163901487164e-01 -3.032411238129970599e-01 6.320045528453728245e-01 -5.176455440009365694e-02 4.947439495602649617e-01 2.417391577568730909e+00 2.157760161048053182e-01 7.678107639481523972e-01 -2.650984528936767504e+00 -3.912818778243818851e+00 -4.630404822544252341e-01 1.257829098065686324e+00 -6.445929089757927999e-01 5.675057814662817224e-01 3.037013207118974822e+00 -1.005373014249772323e+00 -2.485469410795070055e-01 -1.698855478176612976e-01 4.405250651462168654e-01 4.510738328564379285e-01 1.336368440011666270e-01 -1.063361535932400015e-01 -3.688754663688545987e-01 -2.114930441146984919e-01 -1.293232246515421124e+00 -1.141692382197329714e+00 7.501737632877344963e-02 1.588152435047386568e+00 -2.598887190551804616e-01 -5.000546042461195134e-02 2.946112262727927922e-01 1.310269173181197289e+00 6.861430291365016032e-01 -5.697627411985312085e-01 -1.506845776043372331e-01 7.349528124889634362e-02 2.459308177749010560e-01 -4.056103155002300786e-01 -1.251940462143267263e-01 -6.921606770619254112e-01 -1.051687196895266796e-01 3.504482181187708711e+00 1.244053209923528636e+00 -3.132699003878322008e-01 -1.196901622205386095e+00 1.077789741867634765e+00 2.685538743365885606e-01 -1.139006833055944190e+00 -5.549829844023613790e-01 3.634594648796132810e-02 1.487509267548344560e+00 -2.282046721680134116e+00 -3.012566764490689497e-01 7.142363318580240428e-01 1.250414667548702452e+00 6.742306349867269177e-02 -1.576287323851523148e+00 1.478639593512216965e+00 1.124961502161441418e+00 1.516023540038791362e+00 7.814157578113342106e-01 -6.462499927950359213e-01 2.926682466559770712e-01 3.992942872167871693e-01 7.655366311351115005e-01 -3.014509778898228354e-01 -1.632934508402254625e+00 -4.391946712300394129e-01 1.807253023787910751e+00 3.669025321337743950e+00 4.914778748304594602e-01 4.487242743649390575e-01 1.232426013214071858e-01 5.995908543383153821e-01 2.725878531661226845e+00 1.184589177638978308e+00 5.481290195754442429e-01 3.654994800875772110e-01 1.247349857896626224e+00 7.001272721975417834e-01 -3.484716114974712120e+00 7.257556257008425105e-01 -7.883899076526590388e-01 -1.551636904301055830e+00 -1.206530191181368616e+00 1.500214061909103780e+00 -1.510541613391832017e-01 -2.267270382628741920e+00 3.717894594124732666e-01 6.820611816617472289e-02 4.664968627599181406e-01 1.586106442230215130e-01 2.945190946159034762e-01 -8.939819292744788370e-01 -2.091788027298210617e-01 -2.222355886649516610e-01 -4.031646828405364702e-01 2.130981641257459758e-01 7.884944628251175924e-01 -7.275992099141427305e-01 1.067399360247188289e+00 -1.642145140434044803e+00 -8.250345363741627969e-01 -1.303495666777272355e+00 -1.658912322733457900e+00 -1.482177157682768920e+00 -3.155745784865279790e-01 2.747813169684874435e+00 1.185424928578486803e-01 2.684862068301627908e-02 1.944019713121603710e+00 1.059649797456110099e+00 -4.305319961139948415e-01 5.102540028587448928e-01 2.333712056608661545e+00 8.441376304246822615e-01 9.555497026616761869e-02 9.602271464364421361e-01 2.484480666269569316e+00 2.541059752868436217e+00 1.923863392946409054e-02 8.377452047153679526e-01 2.387419741269640294e+00 3.851242379637792035e-01 -2.664928584366026421e-01 5.886502115589558048e-01
4.597970263194234852e-01 -1.997051110290805731e+00 1.400502973333817014e+00 -7.523892679991761590e-01 1.745158452558156936e+00 1.653177328178334626e-01 -5.633748658848637403e-01 -1.014505673679036102e+00 -3.827388445506686665e+00 2.035680079522723118e-01 2.371934694343905969e-01 7.582113053762707944e-01 7.262587389593061493e-01 2.713361326189274614e+00 -4.392538468546107744e-01 7.096302703359474995e-02 -4.223713080980820989e-01 4.566090794114039397e-01 -3.112430529805541579e-01 4.537460546894858116e-01 -1.399210980821053441e-01 -6.795604007210396258e-01 1.555145162028414907e+00 9.504408359958488317e-01 2.479689073365227980e-01 2.285600365959754854e-01 7.397067010926951236e-02 -1.122970899412595980e+00 -3.038481153683726621e+00 2.170902217036461579e+00 -6.121420245935904614e-01 2.406782747472910877e+00 -1.047319772793841697e+00 -7.975104188229765745e-01 7.855072868024901012e-02 1.696505891916523012e+00 1.175995514225366828e-01 -1.939707672534886518e+00 3.444820315009053946e-01 -1.707270810439876982e-02 -3.014665228475583159e-01 -1.361205941078036163e+00 -1.276734444311365402e-01 9.344044782460947385e-02 -5.856702445355249642e-01 -7.430585633136381762e-01 -7.449688009136332667e-01 1.431540436654872572e-01 7.834574328846074520e-01 8.145734539998431556e-01 -1.670339052302970140e-01 -5.554281646241528980e-01 6.591965433926787465e-01 9.916236199304854226e-01 -3.659111362176553639e-01 -2.690712005551050834e-01 -1.047830255644399133e-01 1.257504416110694301e+00 7.112280331324941085e-02 2.191488539447688788e-01 -4.537960643797023241e-01 2.328330227653754025e-01 3.396594638043693326e+00 5.547146435074624682e-01 -7.565588831351440779e-01 9.311869085883501818e-01 1.725403323995556182e+00 1.314209969664340560e-01 1.021402726713421805e+00 1.445888545241170275e+00 2.396416646535755035e+00 3.277153054030399471e-01 3.015975829606990510e-01 1.209026504073712038e+00 4.987427704101821818e-02 5.558577628377602692e-02 2.043746280695196149e-01 1.070682817415825605e+00 1.171990725789495924e+00 -1.386008106174678955e+00 -3.433651058310331905e-01 1.523673645905603724e+00 3.594041030202428655e-02 -1.626425497301459355e+00 -6.529855969820224093e-01 -8.345524977994791538e-01 1.738173690446835229e+00 -3.777218475759114291e-01 -1.799509520680491859e+00 -1.701911622232097354e-01 4.184240093467216925e-01 1.302735054636989798e+00 -6.100904133447507816e-01 2.029190128759825296e+00 1.233011610840234473e+00 5.528544044725189899e-01 -2.138484529373126719e+00 1.004897988045877488e+00 -5.147925129031324376e-01 -2.802358139450775165e-01 6.686067841958710511e-01 6.536587311372051845e-01 1.983410811404919816e-01 -1.854642680471237481e+00 -2.354889890087659698e-01 -2.326324568131483694e-01 8.529923335601639067e-01 -2.363577658026143169e+00 -1.105197323587643110e+00 -7.010625583570281316e-01 -1.139697576649032762e-01 -1.467910516930178710e-01 -1.430063806412276151e-01 1.452429853915961244e+00 -4.152450708822140735e-01 -2.249791291605238719e-01 1.005741457477640433e+00 -1.102596224140580006e+00 -7.370897831566047831e-01 8.395605629161793926e-02 1.115422544745741790e-01 1.243991352292065145e+00 3.132818395821157509e-02 -5.669619268268757950e-02 -4.911803111467849536e-01 -6.044365427319123851e-01 -3.779182562671697942e-01 4.320974817750936614e-01 -9.254092537654421413e-01 5.927736298341165222e-01 -4.492731887732074880e-01 6.741510319080056268e-01 -2.897742878983780468e+00 4.507933939353256925e-01 -1.112405735535101803e+00 1.290920735168436528e-01 -3.794759778071463141e-01 -3.680913167276534947e-01 -1.276774048490178171e+00 -1.631112541099300373e+00 -4.327351624572651212e-01 -1.092225277286006158e+00 -1.590720632923476319e-01 1.219339151335328442e+00 7.802818480268121082e-01 -4.254475437658677417e-01 -3.613283035504269436e-01 -9.946910605291110485e-01 4.594485862881639848e-01 9.409500645323683188e-02 -6.510177225220707686e-02 3.138935831419200628e-01 -8.082619087493410071e-01 -2.190472504232494622e+00 1.926359010424672502e-01 5.663534235540332862e-01 -1.592495095355395796e+00 -2.166477510049176144e-02 2.916867674043026604e+00 1.795666688163352898e-01 -4.171113706213838701e-01 -6.174798089471018603e-01 2.287833449404234720e+00 -1.591345089965096049e+00 8.205810362459743657e-03 -5.023251775773980299e-01 8.724581107781976819e-01 -2.159750287065197172e-01 2.243978207193289443e+00 6.497133534341656969e-01 7.238457671267789495e-01 -7.874216781712537472e-01 2.905337590950030080e-01 6.541808209291678500e-01 -1.569159504341956390e+00 1.668265587732861710e-02 -1.562510270548231051e-01 9.716138427344395145e-01 5.228621502333996585e-01 1.574484105938798839e+00 1.365261354173370023e+00 -5.716524745578851485e-01 1.200108801546377668e+00 -1.111935524144746612e+00 -3.894297160332242658e-02 -6.633465360422789725e-02 1.589860410843934480e+00 2.506172835948390354e-01 9.199116801513899100e-01 -5.190966352285191210e-01 -4.599871838015894276e-01 9.949424087690778018e-01 -2.181791706616008630e-01 1.650239494201721224e-01 1.260345913317668431e+00 -9.435153981769408560e-01 -4.307252782087502285e-01 5.938412115880704611e-01 -1.014853886471091649e+00 4.585472339836638156e-01 1.318566296581137109e+00 1.632336858906763277e+00 -8.200661244002420691e-01 -8.528322493058871911e-01 -1.253196745521449662e+00 4.541397699875049931e-01 1.386475494650824869e+00 6.352956162609419977e-01 -4.194206802232064435e-01 2.230452185392315517e-02 1.569757345154944583e-01 3.118832307887402511e-01 -3.467781509911417315e-01 2.495804550147876222e-01 -7.083518306141438625e-01 3.755518674461116868e-01 -9.883784387603855581e-01 2.828219550767172019e-02 1.347773812729168075e+00 -2.211749956687848462e-01 -9.601723461043103480e-01 -1.778603113119112678e+00 9.406094725413016722e-01 9.140315888360074359e-01 1.999675601172683281e+00
-4.021950329323099815e+00 -3.508306915580858387e+00 -1.280193755968398239e+00 -3.594397371514681527e-01 -8.985771817833453079e-02 -1.613939240206858416e+00 -1.267065190540439312e+00 -5.938194813437730479e-01 -3.131648066349164428e-02 4.549589394428497913e-02 1.729287774204524009e-01 -4.346838061275752341e-01 -1.501196239606037874e+00 -2.662031248984514598e+00 -6.893170442445734070e-01 5.398989746610969309e-01 1.693758132319776455e-01 -1.320703973350923155e+00 7.662287129282819853e-01 -5.456995560805256718e-01 1.326265181172832930e-01 5.696553742326853076e-01 -2.167739147874455874e+00 -2.484442383226818762e+00 -1.150880830569680047e+00 -1.063458342948149365e-01 2.052551398132896054e-01 1.059629262779290482e+00 8.361226720863915718e-01 2.868099173307007699e-01 -1.029910134406601507e+00 -4.320159398990167654e-01 -1.935601030069533934e-01 1.977890522365311154e+00 -9.472393420670035535e-01 -6.197903857233731939e-01 2.161477932526670309e-02 -1.425408010947351700e+00 -5.549872375442491679e-01 -1.350966077643717345e+00 -8.101814093085636381e-01 3.385010258272487693e+00 -7.384639633577658735e-01 1.574174873857130175e+00 1.058055475718641336e+00 4.332220073764968954e-02 5.937934604655772386e-01 7.790991361011163630e-01 -1.299113740420742902e+00 -6.512535123683655947e-01 1.174540147144421232e+00 -7.554518810474184498e-01 -2.565585424564685302e-01 -1.392234533559921772e+00 4.789984759985040363e-01 1.169740186285892269e+00 -1.367603499935252875e+00 -4.064963827707502309e-01 2.744102635496997178e-01 1.433015898374825903e-01 -7.189337878967222428e-01 -5.163465191010699895e-01 1.421513282270357115e+00 -9.570010244220072959e-01 -4.106148726960840434e-01 6.709813962552800826e-01 -1.769551602323427009e+00 -3.938024197180923780e-01 2.584662160187672253e+00 -2.613609166277395257e-01 9.097108272817072683e-01 5.974693579397293286e-01 -1.378987384081474810e+00 -1.991289830940292660e+00 4.168883193940092768e-01 2.408749363104400465e-01 1.664896607983944676e+00 -2.067612606339787718e+00 1.720612459895792590e+00 -6.828480664755369745e-01 1.125050474649762933e+00 -8.973800179319170178e-01 -1.212383219358938558e+00 1.639365288151342082e+00 1.350963502169831409e+00 -6.652814854335329375e-01 -5.043637028303586956e-01 2.487934472997499757e-01 -1.656618613454782452e+00 -5.903666108402904067e-01 4.336580789262772795e-01 -3.673600654102363583e-01 -7.870210695427184433e-01 -3.529047299589208042e-01 -9.735398289853594012e-01 4.051364513304229198e-01 1.879559803105225857e+00 -1.302389419939398607e+00 -2.634521064920976041e+00 -6.219092454089739652e-01 1.829373698686761918e+00 -3.094577775090171512e-01 -1.036848884540449989e+00 -3.669211567871693447e+00 8.463785081276756772e-01 5.424656859410428300e-01 3.910743748337928150e-01 -2.413088550544936484e-01 -3.925844717786782651e-03 -1.531598327976785745e+00 -1.278543877303416065e-01 -4.034148333967246258e-01 -6.470897615944087855e-01 -6.492678270055417533e-01 -1.609367006766759367e+00 -1.313843512968446925e+00 3.005211290089211396e-01 8.909362854867101944e-02 3.330619629994121533e-01 1.011491320173676156e+00 1.064666217549459892e+00 2.790743838692189005e-01 1.288890993995005285e+00 -6.349768647447178171e-01 -1.114963220123408538e+00 8.629359379457529622e-01 -2.404838758363864848e+00 -2.733150640955189226e-01 8.057929334856861470e-01 -1.207965553939940540e+00 1.332545235179327658e-01 -1.168335987520107005e-01 2.135071512382177961e+00 6.408167563159028468e-01 -8.987937348721249942e-01 -1.612305769534658206e-01 -7.600557107625254272e-01 -5.755790248697226774e-01 -3.340415690223465239e-02 -3.663379206127663767e-01 1.745178754618507133e+00 8.995137026220688670e-01 -2.053928692952679214e+00 -1.920576027673747133e+00 2.180744527246305076e+00 9.300010638117009454e-02 -1.003951543060623397e+00 1.332002064052008883e-01 -6.343561899139703586e-01 -9.382848776089656173e-01 -1.507255227983042012e+00 -8.353819948890548464e-01 1.857281286938900489e-01 -1.998087512114202768e+00 -1.167040514911088511e+00 -3.742996009093048637e-01 -6.998711395052837139e-03 -8.849652585275721295e-01 3.440014764795640834e-01 1.464251544731914878e+00 1.093221036861883599e-01 8.371060951277702056e-02 8.365942188814012859e-01 6.926482419175858940e-01 -5.081492406807617268e-01 -1.004414707610673307e+00 9.399554753229032444e-01 3.154629929380198261e-01 2.544591394444839949e+00 -6.432115055783073077e-01 -4.229535913890291043e-01 -1.658163826252175843e+00 -1.121457968162434954e-01 3.284476357725289564e+00 -1.681334486220399160e+00 5.696237147872962314e-02 -7.858326672277341496e-01 5.936861543913851680e-01 -5.988111319549163092e-01 3.747588577569326007e-02 -1.391592586658227049e+00 2.164381557653683452e-01 1.957285298731205936e+00 -6.381919502542405809e-01 7.743493167210803163e-01 -9.311275029464458619e-01 -7.085416110384069599e-01 -8.465796083760976920e-01 -6.721563251756967894e-01 1.351318255145509406e-01 3.124921486003895410e-01 -4.994666253296026759e-01 1.263913535402892308e+00 8.471669658099620914e-01 -3.028896402066574289e+00 8.411835799046607498e-01 -1.579928884346862628e+00 -2.158142770936309629e-03 -1.991346174826487958e-01 1.115967661324037241e+00 -9.723022707489805683e-01 2.256002645845675669e+00 -1.332363714489850803e+00 -1.896117144429312562e+00 1.729078590325841547e-01 2.629989157464213134e-01 -2.602522697137585439e+00 1.028101854318043684e-01 -1.693437171481095849e+00 -1.161192424324070105e+00 3.991703694956286186e-01 7.056836675676383952e-02 -1.112480997590937992e+00 2.413835598108182712e+00 -9.199538681277340535e-01 1.872101513932359351e-01 8.984363659609054809e-01 1.179021121632191527e+00 -1.366501845746837196e+00 -5.980379355772543759e-01 -8.036854424603376290e-02 4.118858726225287370e-01 -2.559178133831730761e+00 1.679018554698076926e+00 -7.974852879370727954e-02
-5.564042263780950570e-01 -1.321428994771889798e+00 -5.845593351288790318e-01 -1.137885123752385264e+00 -5.280114340133409412e-01 2.048582916803138865e-01 3.750027128310362001e-01 1.119006512140057419e+00 -1.024945664846555360e+00 1.593388510157724758e+00 -4.162966540203618671e-01 -4.188780383504723259e-01 9.996273307089482696e-01 3.019054992198567100e-01 1.337379921443801578e+00 1.701381477425343292e+00 -5.975060652092808455e-01 -5.828360479840013486e-01 4.634575429746875530e-01 -9.785030893460280321e-01 -4.415113559402492616e-01 8.825977358921591742e-01 -2.780508990762609600e-01 8.884052908760676770e-01 1.118769211149104992e+00 3.750339549450046328e-01 -2.047417312176061932e-01 -1.165920108094778529e+00 -1.052321770456007971e-01 -7.305595087439673563e-01 1.057158493640906638e+00 3.309806744393039568e-01 9.758888287937562689e-01 -8.567588783999427804e+00 1.420269597273888573e+00 -9.061155580735796855e-01 1.454241169918466747e+00 -1.562283459169696354e+00 -8.575785190920055534e-01 5.326232316602186323e-01 -1.143186662227996031e+00 -1.077235044151747090e+00 -1.527109107007277089e+00 -5.698690763974769702e-01 3.416154303442707763e-01 2.045026038838381188e-01 1.004592886197303692e+00 2.701354308685565697e-01 1.002480147308791314e-01 1.766821095164138322e+00 3.550191541196303646e-01 -1.502204298581064079e-02 4.228527132225187724e-01 4.727936328281180933e-01 -4.155115433427518379e-02 -4.353978430190916793e-01 7.760053693409720843e-01 -7.619148425637775057e-01 -1.450479830462147790e+00 -7.422000042428165134e-01 -1.584543422053947825e+00 1.984477317695590548e+00 -8.559831200372425286e-01 4.441870449016641631e-01 -1.407306766327740100e+00 1.398442881795510351e+00 -1.356376615510734157e-02 -8.035391534219590293e-01 1.478204154234092016e+00 -7.518341281500702245e-01 3.535688615716586769e-01 -5.475122013966410295e-01 -7.131469894111014396e-01 -5.439289229030865869e-01 1.006150620245611416e+00 1.219117542798664022e+00 -7.116830088818159039e-01 1.428768502875476853e+00 -6.363264907501210432e-01 3.346666256022893804e-01 7.733410089053239789e-01 -1.470410111357748351e+00 9.317550510955002752e-01 -1.237671883459285221e-01 -1.021034686043434669e-01 -9.663305440812117730e-01 -6.327433976789147430e-01 -9.301504424397368798e-01 1.049359047986063276e+00 9.545079594927648181e-02 6.448592751874377971e-01 -1.203221376381901964e+00 6.855132503705704261e-01 4.133184965891635865e-01 -6.652713696093323081e-01 -1.606373967461440566e+00 -3.753816499328790912e-01 1.505398081857259651e+00 1.841954355078489147e+00 2.012804621616859801e+00 -7.148901016128839103e-01 -1.248388351649874384e+00 1.465375252735287903e+00 -4.271675895927266042e-01 9.896874512218837294e-01 5.508974087515761120e-01 1.198042943209759598e-01 -5.404660549253186286e-01 -2.782383008860573881e+00 -1.412991999236827834e-01 1.951962689947437823e+00 2.062402623369104848e+00 1.711791694688524990e+00 6.222183017900441371e+00 -8.340215562643678027e-01 1.934972610915971059e+00 1.026746850296704094e+00 2.110208630379159622e+00 8.250530616903304360e-01 -4.697243403630668723e-01 -4.287093269619789149e-02 8.275954312195072937e-01 7.360397342057760639e-01 -7.798694523513007848e-01 -9.045314694013787404e-01 7.287434245392717669e-01 -2.749287093800346637e-01 -4.877659475231279629e-01 -1.415885602854843883e-01 1.793887578036612140e+00 8.884477266259461770e-01 -1.318101665765673891e+00 -7.489371667894955120e-01 1.443295871679775244e+00 -8.857432659411889064e-01 -6.426171563815076260e-01 -8.705093474874582293e-01 8.597996922123959385e-01 -2.741508081860689838e+00 3.574631244307708844e-01 7.303574748385169846e-01 3.161685305723573869e-01 -4.597354365916963559e-01 1.347625456850336967e+00 7.860241856892816736e-01 -3.876553009774241221e-01 -1.147301060742727197e+00 5.485597301753838417e-01 -3.187413527798092505e-01 2.272145459768597053e+00 -5.622704356075090004e-01 4.536363452723289891e-01 -8.690601776290188818e-01 -6.001568329413077274e-01 2.911533800121075100e+00 1.142332518831588262e+00 -1.475090486555358238e-01 8.082553508873063786e-01 1.139989264185034878e+00 5.197598339284669189e-01 1.059421279347503297e+00 1.203031955631032934e+00 1.808889926168218532e+00 -7.046731374622402511e-01 -1.717990607283140791e+00 -4.877639006817587886e-01 7.546733035598673922e-02 -4.770390886241205330e-01 1.288355489654538388e+00 4.614337495694401103e-01 3.669056666381734222e-01 -2.058829226399432333e+00 7.042303011114586786e-01 -3.807173362203946088e-01 6.744960056527961045e-01 -2.910523418990208500e-01 -1.636762707254043603e+00 -4.391195369233351076e-01 1.730911058508219080e-01 -1.293663990895273841e+00 -5.625072370937862498e-01 -8.139913781362106970e-01 6.467476466354571407e-02 -3.278368343111509597e-01 8.756574092767593909e-01 2.751302590687475735e+00 -4.386429435643835473e-01 5.564189645924260130e-01 8.246128276951962544e-02 2.227146010522051967e+00 -8.718800023081586525e-01 7.431995894979450679e-01 1.708233593027500774e+00 2.685379003902722328e+00 5.711078868075925019e-01 1.224758807468274702e+00 -1.086901128706005304e+00 -1.753078549015550380e-01 6.462455674517583182e-01 2.209936427708512063e-01 -4.168724726732889740e-01 -1.006241161522686139e-01 -1.290131804176504193e+00 1.458755069307252766e-02 5.083686422733155741e-01 -7.813335688906344334e-01 1.140294999973193057e+00 2.188621051854377220e-01 -7.539567799019081251e-01 1.170851520431071435e+00 7.376690247541786705e-02 3.824699780339821942e-01 -8.837433629000550628e-01 3.683752399000160271e-01 7.380297179113400885e-01 7.373076280644625946e-01 -1.604736085150899383e+00 1.100888648551598958e+00 1.050277355802806456e+00 -2.262686679905792364e-01 -4.276889810403020631e-01 2.428474606612023023e-01 7.927402187023779856e-01 1.246678998925441872e+00 -6.522627032599959129e-01
-1.407130970242911561e+00 -3.691933483525127735e-01 1.306507696372728233e+00 9.302814686638918307e-01 -1.537067896993205007e-01 -2.851073370930809481e-01 1.426410835012230427e+00 -2.235591730185341741e-01 1.417428885325275889e-01 2.204467772176586404e+00 5.317342907543757408e-02 -7.889493087359558121e-01 -5.311081920245226684e-02 6.824004767411386840e-01 -2.708879353012833668e+00 -1.978402454114744691e+00 -3.604765037663134053e-01 2.077086497058862335e-02 4.459659857606672606e-01 1.837280063383956163e-01 -1.200076301094986642e-01 1.039990987534787026e+00 -9.352603903496313487e-02 1.035548690525964211e-02 4.291121240792541980e-01 1.802122037241598473e+00 1.111179350357127449e+00 2.971350905382623697e-01 -6.243842678502095067e-01 2.184264192100583424e-01 1.061630705173078004e+00 -3.498191589385201139e-01 2.476739169551355757e-01 -2.739903717931011506e+00 -1.597423785019637110e+00 5.410192089542756877e-01 6.852130569757334255e-01 -1.312903159338985604e-01 1.071107394960139736e+00 -1.124416913596306911e+00 3.942354534866324700e-01 -6.705322614174918927e-01 5.656538671401691865e-01 1.012905833240293818e+00 3.009348829412979431e-01 -2.942870020119894847e-01 -2.421135808947882662e-01 -4.251677870111597590e-01 1.426115760349383255e+00 -1.206807250263103731e-01 -8.305380033060656697e-02 -7.099130945982998764e-01 -1.597828261283610329e+00 -3.246835907066741855e-01 -1.517238301930335043e+00 -1.543083775358230353e-02 8.235925281561644606e-01 -4.463573539493756459e-01 -2.462225094406825132e+00 -1.139558626875030178e+00 -1.315759594834801094e+00 -1.405115322270002354e+00 7.811428735746787089e-01 -3.241617320645810429e-01 2.538577118825220968e-01 1.701777579116604988e+00 4.869433098659021186e-01 1.390106281772127028e+00 -7.140432447201715549e-01 4.521854193228771468e-01 -9.478229328115329588e-01 2.536523691951284132e+00 -2.041115274134366775e+00 -1.368058137081698877e+00 4.021647798366629334e-01 -2.364937105541520701e+00 4.764281996883321102e-01 7.243973251422000104e-01 5.822854848708800546e-01 -7.707594225738256810e-01 -8.259925146684991837e-02 -6.690275950458550724e-01 2.098066135526178710e-01 -5.242277128606047387e-02 8.542479777655931361e-01 -1.348089122843231791e-01 3.268971345751833235e-01 1.030109841472918841e+00 -1.290940008930531402e+00 -1.507522554233734047e+00 -3.520497593350285781e-01 1.292643517049177460e+00 -1.192964132060483629e-01 1.508561529356243491e-01 -6.571112855133600661e-01 -1.404132693699772005e+00 -9.297149633311684314e-01 1.431392125541992577e-01 5.021020702618026466e-01 3.916926542275300238e-01 -9.087636652998588860e-02 -8.294081831921926717e-01 -9.107107920134090984e-01 -1.323462324468576590e+00 -9.225281308159225535e-01 1.100034073248950195e+00 -7.484053935077357167e-01 -3.838450950477725887e-01 -2.761477850196437100e-01 -6.848124398793776768e-01 9.738762367476899717e-01 1.575998343413004932e+00 4.578975330471269922e-01 4.152850531590019045e+00 -2.008505092183754837e+00 -1.001982711014050675e+00 -2.400514145404925581e-01 9.260323977085453961e-01 3.138001477961455121e-01 -6.287230676511397220e-01 6.650120674306648771e-01 2.000401524335367609e-01 6.484101269130307932e-01 1.127224039664945110e+00 -6.640502792873517190e-01 -7.731952803794004403e-01 1.052750570408707897e+00 1.775412210097403687e+00 1.013717081231262085e-01 1.419041806250446847e+00 -6.832514026900039505e-01 2.319858871751194762e-01 -2.308782493478602760e+00 1.054854937554010830e+00 -8.202517573236265402e-01 1.623667751734775733e+00 5.971912253463034226e-01 1.295678254148954434e+00 2.298349988246232434e-01 -3.264153814482627647e-01 -2.105102493137442909e+00 -1.255454255724528290e+00 1.308020731905940259e+00 -6.734691101604891594e-01 -4.700228185866741626e-01 2.778421793683042984e-01 9.685938475737163600e-01 -3.175297998100348740e-01 5.295679397045600645e-01 2.422011911400002493e+00 1.622257272592280586e+00 1.644904614563620804e+00 -1.099198521029371101e+00 1.930275319327333650e-01 -1.509056258059350390e-02 -5.940293596159074846e-02 -1.478988872275567523e+00 3.348846718593064820e-01 1.189383806304203484e+00 1.794352845895841098e+00 -2.418601983366142349e-01 1.155277258257202400e+00 -1.521429177825550927e-01 -5.174894038037082256e-01 -9.990931987658260294e-01 -4.588975531212584613e-01 -1.467724274520757044e+00 4.978005369778675804e-01 4.716316637385155608e-01 4.085265392467318790e-01 -2.276802264482149951e+00 4.291096780432079871e-01 -1.282695534132985316e+00 -4.405790100674964460e-01 6.409604732569181840e-01 -9.787641409867025022e-01 -1.366254746999126801e-01 -1.809732737736074459e-01 -8.238834104913582701e-01 4.626347245717343792e-01 1.826391727132623322e+00 3.896255664704868504e-01 -5.319222831351009262e-01 1.454806678430536016e+00 -2.801224121022161118e-01 1.822976410038217865e-01 6.690501812178802910e-01 8.766671628398654548e-01 1.321263204088367171e+00 -4.814651006031436253e-01 5.335129384688320764e-01 -1.044366960355922913e+00 1.225473439841305634e+00 -3.200870154349373387e-01 -4.652554679644353430e-01 1.070933298027910929e+00 -4.472910127784218010e-02 -9.380866652777618553e-01 4.518083478318698498e-01 -6.000515349915004348e-01 -1.206882029917383692e+00 -2.990490651232876607e-01 1.024420549981828854e+00 5.332298866756955968e-01 -8.873247868215536904e-01 -1.744405762227589293e-02 2.245997993303460394e+00 2.434153141098041595e-01 1.235230933764303707e+00 1.253739627592868722e+00 1.277761120088169111e+00 1.662208382457434297e+00 -7.819262100840728147e-01 -4.652765455468464983e-01 -3.417647580579344924e-01 -1.596730123383043320e+00 -1.230210114822719802e+00 4.033058698507980266e-01 4.540238934696076978e-01 -3.043227826170426531e-01 9.850921499543797699e-01 8.825757799973528162e-01 -8.597163018491474351e-02 3.771961199091274364e-01 7.629614842413786624e-01
-1.382326118007902505e+00 -6.529039942723362522e-01 -1.047836748974886323e+00 6.210211443679956173e-02 -5.407237999014051777e-01 1.782477267252681630e+00 -4.646198250374815597e-01 1.116292583002014061e+00 8.894866654575930287e-01 -1.929079928231685503e+00 -9.339270224648308361e-01 -2.699386981220272541e-01 -1.800976534072719293e+00 -1.141151836967392530e+00 1.235013493102267379e+00 -6.098329399350407298e-01 -8.236756666920945769e-01 -7.869260328186701570e-02 -1.509372785045042686e+00 1.630843319894506704e+00 -1.242969162385495707e+00 -1.184339304764234546e+00 -1.156384760076897278e+00 6.917573429645471617e-01 -4.395645441518076790e-01 -1.636357551111365660e-01 5.543084319944336924e-01 -1.217437159008190606e-01 -4.114652971918777991e-03 -9.440268452698939716e-02 -1.095581605269710518e-01 7.339447214128421715e-01 -1.413138082245848803e+00 2.963910621775064591e+00 -1.670035401803382502e+00 -1.358702468958411291e+00 8.613813743734631823e-01 -1.937643812641597352e-01 2.995127122373419937e-01 -1.242135578564869780e+00 1.205080938549143887e+00 1.953036862708818822e+00 -2.161984217187041812e-01 -1.765664417589495550e+00 -1.365943562016050716e+00 8.483957290238497428e-01 1.987117166605951946e+00 -4.039703400448235171e-01 -1.475673826834727809e+00 -2.067175959998354795e+00 5.356281228771434533e-01 1.051440385189998494e+00 1.254954157800663717e-01 -7.174536039316304903e-01 -1.960257569010100509e+00 4.171159936896091103e-01 8.586979406052617225e-01 1.940659044711386949e+00 -7.255465366092324064e-01 -1.153147937841539461e+00 1.541697641642764571e+00 -2.326284986610426042e+00 1.479872091402138601e+00 1.183621368170363786e+00 5.694067971713620002e-01 2.643820817994924771e-02 -6.269548054752862587e-01 2.309982850095936013e-01 -2.798228746441576709e-01 2.607931934271299212e-01 1.135715740989968081e+00 1.268602492286718258e-02 -1.574064830704216211e+00 -1.504940423505872982e+00 -6.321983436166467296e-01 2.289467742378332726e-01 3.367925908255928885e-02 -8.290178032041921607e-01 1.593657515843658112e+00 -1.627545057024082586e+00 -5.808254012297530133e-01 -7.854772927493712809e-01 -8.100691100032306191e-02 1.535482785709243014e+00 1.665423330994957873e-01 2.747970988063400122e-01 2.028545725775935116e-01 -1.204459680536666299e+00 -4.533403979806624462e-01 -1.698355674442663943e-01 6.328944286567632638e-01 -2.249303304881208110e+00 -2.337686344961726448e+00 1.079977448393115935e+00 7.803149169661494078e-01 4.008544835769670134e-02 5.167640502495127741e-01 -6.370294681485254573e-01 5.765828712797867878e-02 -9.052205072734798019e-01 9.418205568509723236e-01 8.269600289302751761e-02 -6.052299889448623516e-01 -8.977932562821201445e-01 1.152277173219534712e+00 -1.578262879309628303e-02 -2.204405564130151318e-01 -5.471181143598081720e-01 1.099284135584331468e+00 1.339485453938361881e-02 -6.292695423567370439e-01 6.343505826407859483e-02 8.782651927713831519e-01 -4.974412538951049179e+00 -1.060583774812721702e-01 -3.254827328895883443e-01 -1.315171932963650203e+00 -1.119168240955545013e+00 -5.235386105168030602e-01 5.643278151747483928e-01 -1.300890945643752517e+00 2.257185080419081835e+00 1.928169631602475009e+00 1.153233587720358999e+00 -8.844557596371798169e-01 -1.485784952848340917e-02 -6.616967929364084844e-01 -1.561597299148881346e-02 -2.018521286171825135e+00 2.600843210259033977e-01 3.050840173483876372e-01 1.133006623280512715e+00 -3.123757449023450289e-02 -4.552581039374731797e-01 -1.720767556678949317e+00 -6.269885193496933518e-01 -1.391419405377436469e-01 -4.677909012350082996e-02 -1.174730098330579731e+00 -1.230763217153877154e+00 3.598213221045629684e-01 -1.942747464289541759e-01 -7.847305682242073921e-01 3.925032000942072496e-01 9.133633967359856831e-02 -1.548022816121768175e+00 3.099199068390930817e-02 -4.863195874080105119e-01 -7.189565877068326838e-01 1.171875207111953587e+00 -3.165519494887452656e-01 9.270594387478812148e-01 -1.734577697050452283e+00 -6.586363932185286263e-01 1.708777775745152105e+00 1.078097915482438385e+00 -2.050541446016242164e-02 4.464216201376183246e-01 2.484841182797850323e-01 -1.102673595513513183e+00 -2.045351296126488805e+00 -7.624811216994026308e-01 6.721912207364115766e-01 -1.547620180653383581e+00 1.896078053726997503e-02 1.615976314288690263e+00 -1.876485503805913890e-01 -7.204659743324933752e-01 -3.733735425160649712e-01 4.672163660960474418e-01 -1.763925003626673482e-01 3.418735306176133304e-01 9.535698118414644986e-01 9.165063414146296106e-01 -1.573005914877909084e-01 -1.189143743395176145e+00 2.168818386454737901e+00 -3.755594906653652032e-01 1.170834527966927885e+00 -6.033332955852049873e-01 1.282285332967395775e+00 2.749943625694306615e+00 9.163658272579155994e-01 -1.588700968678310232e+00 -1.862497421860061175e+00 7.256623048144855703e-02 -1.134216264002714913e+00 1.454742214769736197e+00 -1.185063543921754281e+00 4.126780065479641046e-01 1.376715499779533003e+00 5.681049066643919510e-01 6.316427972455763706e-01 -3.439759219085687381e-01 -1.306374067186464094e+00 8.310942588583614121e-01 2.826679342226265934e-01 -8.751730421293093531e-01 1.758009483696197917e-01 -9.918048908910995776e-01 -8.642015160014069330e-01 -1.707510762476201482e-01 -4.075815848474749759e-01 6.753781952937718547e-01 1.288041660701497726e+00 -1.326875951995323488e+00 -1.423795756302294935e+00 -1.705625825006231167e-01 1.160455916269556687e+00 -1.089507907503511230e+00 -9.981974606278628537e-01 7.602864900412333871e-01 4.872518546397532901e-01 -3.382955614492157426e-01 2.361677858683800257e-01 -1.138105084277962531e+00 1.175554957058519312e+00 -1.050919199119055403e+00 -1.729598872945439791e-02 7.659321468072739503e-01 4.272618680506939381e-01 -8.677216537225228565e-01 6.070247208531899252e-01 -5.528855785946535512e-02 -7.407097240159897511e-02
1.892354787679316475e-01 1.617060542792136402e-01 -9.141184300663439677e-01 -1.519291634331518814e+00 -7.739007558415263999e-01 -1.419315094137551414e+00 8.283967454293046373e-01 -2.698027977324696791e-01 1.330569170036142168e-01 -2.707800017623772870e+00 1.755677358209436489e+00 -5.403452363493364885e+00 -6.544196461865341430e-01 1.612963911705580511e-01 -8.047941813723965554e-01 -6.762931486646434065e-01 2.059563377851905130e+00 7.456079839653804164e-01 -4.129278636663715751e-01 1.267270641476600623e+00 9.501464058964570469e-01 1.013444935910500666e+00 5.065031854594527205e-01 -5.887493275639744672e-01 3.316828817282031494e+00 9.037823227632357792e-01 -1.962919722241073917e+00 -2.994417924065044811e-01 -5.995714096094906242e-02 5.962312524709858508e-01 1.734722929291785176e+00 -2.927034124072926402e-01 -1.992897203031024800e+00 6.431507482927252273e-01 -2.014769955778499266e+00 4.091842945143896459e-01 -1.435564378126677143e+00 1.540083962703552578e-01 2.822562975807106689e+00 -7.627476095704628367e-01 -1.957281351924044399e+00 -7.659079809301518049e-02 -1.980111247261178375e+00 -1.030424194215971090e+00 1.419820469769960347e+00 -1.679902584399309395e+00 -1.442937150411143232e+00 1.211580929943856910e+00 -1.017141955203821224e+00 1.419087315575896735e+00 -1.030584340096280638e+00 1.862493345713712722e+00 1.601457828136772843e+00 9.447159357337338026e-01 -1.281023529761074364e+00 2.021288026058203791e+00 1.315113218351427193e-01 -1.926650560555386082e+00 -5.229939282917949406e+00 3.036913311361562062e+00 -8.968891934305579516e-01 1.187756323592910057e+00 1.570934562563605363e-01 -6.014375173659387147e-02 1.554101525593525324e+00 1.314945140531524226e+00 2.799107226286243755e-01 -1.776137417428433896e+00 -3.505291746978058121e-01 1.057061102429060151e+00 3.131066503869588402e-01 -5.254895183228716071e-01 -1.250439733757147565e+00 -8.473738245673643199e-01 -1.727880299628964611e+00 7.183243438960042582e+00 7.738100878308664665e-01 4.523198912789971882e-01 -5.862132567107679604e-01 3.807574006484334972e-01 -4.196699167326823354e-01 6.580818909955615803e-01 -2.334156065217598552e+00 1.929897568437715372e-01 9.838243659775682826e-01 2.150158781750244774e+00 6.523388540272250236e-01 -1.698508308969886693e+00 3.338833759452713434e-01 8.827835337184454234e-01 -1.359681205732832687e+00 6.153369006858405710e-01 -1.096526818409317094e+00 -6.441783440527426574e-01 -1.180120528924754469e-01 2.487362679924205011e+00 3.210510872856751075e-01 9.804564014865851940e-01 -3.876459876169929819e-01 3.980213156815254116e+00 4.824608714140509180e-01 -2.553662341826703042e+00 1.267664808581502545e+00 -7.886061556428315689e-02 -1.169535214384208821e+00 -4.467892458920162957e-01 -1.118505008548287938e+00 4.977148159758301160e-01 5.026458692679006690e-01 8.975279954269955729e-01 -2.060834460237440879e+00 2.981958553033373871e+00 -2.655273941999505283e+00 -7.642372983593154201e-01 1.162743939026767981e+00 1.923394143206464291e+00 3.035998886646004147e-01 -1.590552096900816059e-01 -8.822026774947608896e-01 -1.134436566442234451e+00 6.937225890921164817e-01 1.030090030806639634e+00 1.147731265261571876e+00 1.915378620952580047e+00 1.463657374151305035e+00 -1.287150546145745533e-01 -6.217445692051378758e-01 1.827859651332450319e+00 2.821780831974731729e-01 -1.047893546491408534e+00 -1.404719749626724967e+00 -1.343784262484828185e+00 1.053208140884863697e-01 8.738586176901645963e-01 -2.837965890363291499e-01 -6.541897273914930588e-01 3.643121819654558280e+00 -2.191919904578930878e-01 9.120393159350626000e-01 2.358628230340768447e-02 -5.631222031480062062e-01 -1.332383178304340721e+00 5.367682443644919976e-01 6.643652974547535894e-01 -3.049314639252098669e-01 -2.113909547848988435e+00 1.588614595653581762e+00 7.390585311475128538e-01 3.155874481096163087e-01 -1.899681385572626002e+00 1.028610880426507945e+00 2.413132163740998148e+00 -1.702461544263848880e+00 -3.429698320593670413e-01 -2.225097335671679666e+00 1.397515825674726209e+00 -8.846545127935575570e-01 -1.687768331365659069e+00 -3.367481974984142812e-01 -6.789146909728773771e-01 1.406726303247259002e+00 2.566455443906464629e-01 -3.453476862052290430e-01 -4.409064489761849170e-01 1.816656115162816887e+00 1.920834999834773793e+00 8.307105691040130857e-01 -2.118155475066695548e+00 -2.825643562723859081e-01 -1.008765533468096942e+00 4.331274151535542849e+00 -3.299602187581783808e-01 -1.464620523480004710e+00 -3.173851623185279802e-01 -5.570787444300221436e-01 -1.429170820610769610e+00 -2.552420207701655563e-02 -1.295137189625852780e+00 -3.032629521203940914e+00 5.162694826067526499e-01 -6.389326900836156398e-01 2.216520442624948739e+00 5.870217304435223493e-01 2.659250919413390424e+00 -1.490621389098515159e+00 1.037713311711849329e+00 8.455862405291000305e-01 -1.027745940807129443e+00 7.196966972138816310e-01 -3.239341546787649850e+00 1.551250260683619375e+00 -9.661720430276334037e-02 1.379806179767560481e+00 1.692984841772093851e+00 1.546966745334556470e-01 1.240614543681640036e+00 -1.334091474217706574e+00 -2.964681385121409996e+00 1.123411364088278797e+00 -1.066882598879146382e+00 9.181889077849515468e-01 2.710840857778359925e-01 1.300626804248738111e+00 9.195584770240061712e-01 1.234619516262470906e+00 1.356160420284829415e+00 -4.377993703996703734e-01 -1.128575500460216596e-01 6.160690632721561588e-01 -1.484844014212834074e+00 -2.360141480111840107e+00 2.387401224272402978e+00 -1.554853880799436983e+00 -4.853500776886757184e-01 -1.617113763978380359e+00 -9.256647671207565153e-01 -4.849091512930200909e-01 -9.878018654466464987e-01 -7.317547931298267194e-01 -1.133101335458414960e+00 -6.001454899856754066e-01 -7.496733568205371512e-01 -1.097587971380584448e-01 2.512256246405536464e-01 -2.784166148437497434e-01
-5.072217705730723558e-02 3.072045943768220710e-01 -9.556515781777467078e-01 1.031529337578324990e+00 -8.284597410249882055e-01 -1.566454491743057009e-01 1.272385169331272214e+00 -2.561270906239243583e-01 5.510633210755612188e-01 -8.453451456607921077e-01 -1.510669650404778075e+00 -4.720953287137825249e+00 -8.110607663190967653e-02 -5.066426549575551164e-01 2.552208881036273080e+00 -2.024297310964000562e-01 2.226459242943537586e-01 -1.987722947892987424e+00 9.086525852572009399e-01 -2.017738659542575586e-01 1.777500541148009150e+00 1.742758173112584075e+00 -2.764904155166182931e-01 -3.569756969976009553e-01 -2.578839756547357531e+00 -5.516713263708105108e-01 7.209748705253744561e-01 1.544268961555622655e+00 7.562113321752396145e-01 -7.670682127487471469e-01 1.976271381646088399e+00 -1.241871773826886072e+00 2.585838342318295791e+00 2.537547962229388387e-01 5.569381327855087160e-02 -1.437032191039595563e-01 -1.993035779196168089e-01 1.470108292944225514e+00 -4.182701738889964993e+00 6.257044300622790489e-01 2.766262466796205910e+00 2.233414578351154700e-01 6.266959822371881428e-01 8.702914268507397910e-01 9.052543570392961314e-01 1.157635368359827055e+00 9.494750822863554651e-01 -1.300582111187144896e-01 -3.852351448322923200e-01 1.190246352733410173e+00 3.551514742948281844e-01 4.945011145205023162e+00 -3.049643879334475560e+00 -1.092725009208003639e+00 5.325957722881280443e-01 4.640467906625723726e-01 -3.946085519816368015e-01 -2.450862407249752017e+00 -1.215032521358252104e+01 -1.561282481122601151e-01 2.743489148509843378e+00 1.246805740969172405e+00 -5.350339178327621070e-01 -2.041600315616600714e+00 3.977897876227586837e-01 -1.684524362370622086e+00 -1.073102896439141141e+00 2.160592364712649316e-01 -2.840442272156921688e-01 -8.909976005384342423e-01 -1.017826871516522180e+00 -1.878980002639493607e+00 -1.039753614904273205e+00 -1.316117619556590901e+00 2.859167502998186117e-02 1.357843132037325873e+01 -1.291789618595241551e+00 -3.607665996201002701e-01 -5.261278897429841894e-01 1.894294498693600559e+00 1.362447613768302812e+00 -1.553889949187057917e+00 1.308902113718358462e-01 7.923815095959723109e-01 3.825234536657655671e-01 6.219514507019925365e-01 -1.325969958630663026e+00 1.362352988023187494e+00 7.841957228997989970e-01 -2.664079932034469356e-01 -1.498060787413460826e+00 -3.014415083550783692e+00 2.706077492207182189e+00 -6.121025826359605126e-01 -2.234499982922729000e+00 -1.816021914680820748e+00 5.904453016196844484e-01 -4.078919097213872247e-01 8.219176986901126358e-02 2.490001321298409009e-01 -2.240393116615303770e-01 -9.579614207344702148e-01 2.232837857728071917e-01 2.863985651517529929e-01 2.285642798073771742e-01 7.633173685678814602e-01 -1.979268309756417432e+00 4.460180325177770522e-01 1.390245837526843387e-01 1.481902062711987211e+00 1.115127938995153084e-01 1.288482348042092052e-01 6.730970037048493726e-01 -3.298588208428074875e-01 1.796934593877930475e-01 1.190106302238335134e+00 -2.046065773828583456e+00 2.642498835139897029e+00 2.486152820284369902e+00 -3.794444506869708023e-01 -7.142401371810312982e-01 -2.262623242065869622e+00 -2.730706792191814336e-01 -3.580039507537347010e-01 1.380063291647658286e+00 1.446666493488705019e+00 2.207610157916907456e-01 -1.270323397797247678e+00 2.187092095270585901e+00 -2.233423616824524505e+00 8.879160898717057826e-01 -2.683543647507569574e+00 5.399105573241997913e-01 -1.606841601035468026e+00 2.069712891433713953e+00 6.691869937593465656e-02 3.988618991589334972e-01 2.338697894007288003e+00 2.281996402798971868e+00 1.975261081211760139e+00 1.042897309367712688e-01 1.231220795563647386e+00 4.085305442528248954e-02 -5.947594557279209937e-01 -3.446500440641199758e-01 4.906548527106442958e-01 -1.034726415728853821e+00 1.544497101366692604e+00 -1.349467614411444139e+00 -5.058613593113787665e-01 -4.004646544722312122e-03 -1.539819028008606816e+00 1.762319216699521629e+00 7.092110110646228094e-01 3.304286916300752108e-01 -5.234200633710455186e-01 1.296260351516374865e+00 1.462210107193130659e-01 -7.376144558861648104e-01 -2.567723246290182226e-01 3.229623169704535779e-01 4.266060235831142577e+00 -9.294209238574523413e-01 1.581141504706570444e+00 -4.862634420068946417e-01 2.074646030275396624e-01 -1.239798861956164178e+00 -1.301726680806438941e+00 -1.932684751770935017e-01 -1.383132237129379494e+00 -4.176151898537768803e-01 1.809786881655496504e+00 -6.564482264639309728e-01 -7.234914376193243846e-02 7.698352079981417573e-01 6.384556685012349186e-01 -1.679956894215950958e-01 -1.217674963491240936e+00 -4.977959116142821050e-01 -2.228145074283206517e-01 -1.329390772905046925e+00 1.201933213092019725e+00 -3.472454441793639268e-01 3.643442030173958290e+00 -2.377864090607132996e-01 4.561038874651943686e-01 -5.635936818278692861e-01 -1.157901167282897825e+00 -6.076617736039386486e+00 1.344093155576143950e+00 2.033563685745084726e+00 -2.938612360639528021e+00 7.070175700888121917e-02 -5.557427242448710336e-01 -3.774108509668749334e-01 1.658500353169233721e+00 1.026325221353796113e+00 -1.182017696887562197e+00 1.350980512677246059e+00 -7.577186841970242615e-01 -8.114330506928369990e-01 -5.086831765678012651e-01 1.066421601666704522e+00 4.666881264189738365e-01 9.333862901790540567e-01 -1.378300054290718890e+00 -2.359767360334160125e-01 -2.870794995144706263e+00 6.880646935147239907e-01 9.757625654947285621e-02 -5.143962932466130678e-01 -5.686527035934634267e-01 1.644836134059633803e+00 1.407654462716082487e-02 1.676019074590463953e+00 -2.773306785804112273e+00 9.875208435673734630e-01 -1.760759635471566831e-01 -4.446344254337318280e-01 1.034865280601441756e-01 1.184654422667623219e+00 6.634142548866318601e-01 -3.316072756912868402e-01 -1.240017552285711977e+00 -1.392016800764948936e+00
5.544650589339134017e-01 4.748618933335211900e-01 6.216028155787068910e-01 6.572761438768479625e-01 -1.069169309866844358e-01 2.708897520426254424e+00 2.018678537927304451e+00 -5.118420883311932679e-01 -1.439006303953302597e-02 3.018867181046200887e-01 -3.623707451382057187e-01 1.101621295761541663e+00 2.397581876650746735e-01 4.156799235195118847e-01 -2.443786497631574850e-01 -2.366525034525908566e+00 -5.777306047684984236e+00 3.193254162831399068e+00 -2.642341422419755670e+00 4.833742664295891112e-02 1.541642399684387266e-01 -8.524941502482973332e-01 3.571939792610122066e-01 1.015652072301429953e+00 4.399862661433475708e+00 4.272890574387541163e-01 -1.367664098987827925e+00 -1.486046307450331838e+00 -2.186133429970756048e-01 -2.381858523753560553e-01 1.305943857451391299e+00 1.729872807704528892e-01 1.377043898743602890e+00 -7.144382308163382822e-01 1.788648459716978945e+00 3.956636405539486201e-02 1.056676935219966890e-02 1.308477361594920230e-01 1.438456266296383568e+00 2.769312578557024285e+00 1.249719311225280904e+00 -5.636564286480789665e-01 3.441810900418965646e-01 -1.405402802558980646e+00 -1.381570658023084652e+00 7.213295499599091387e-02 -8.609561096565588878e-01 -5.672411768964560341e-01 5.686450042141178995e-01 1.640698693785745399e-01 -1.597826978278036991e+00 1.348086346835567939e+00 -1.843928197899225574e-01 1.180857798745360121e+00 -1.185580369452269522e+00 -2.160697800559888471e+00 3.073281239021168343e+00 1.692118491182969808e-01 -2.974356248822812532e+01 -8.733844709390006233e-01 1.130298146283771787e+00 -6.314050370475856599e-01 -2.535120583139692796e-01 1.402694272097060990e+00 -5.098898659805969347e-01 -9.068359228268387806e-01 8.134250040127242176e-01 5.316219282578373839e-01 -6.580622187245884769e-01 -2.106506766751319870e-01 -4.980780596802268922e-01 -2.395414393054878133e+00 2.563709375115112543e+00 9.097852476018591927e-01 -1.871887397685851218e+00 2.593944715107046406e+01 -2.880726207824463092e+00 1.417134337516392506e+00 -6.191382301444731118e-01 5.200018058373631069e-01 -1.952214230318443766e+00 5.203693116792820206e-01 2.032234851090752414e+00 -8.504428297920401114e-01 -7.708840200307984780e-01 1.990223193951767278e-01 1.785108863290101600e-01 2.453796936484773095e-01 1.243939870312027018e+00 -2.198420338119801143e-02 -1.880759264925219165e+00 -4.175603958148749739e-01 8.037236284703737077e-01 3.945043593748229910e-03 1.280471949188608738e+00 -1.815275450901411514e+00 -5.492616776995377093e-01 6.883948279603175902e-01 2.534335869066191571e-01 -7.613632070342424285e-01 -1.690091947954948548e+00 -3.774445670542544429e-01 -1.422055558206920090e+00 5.120645787619754197e-01 -3.842776060508657499e-01 -1.750261667819115186e+00 -1.296397278350615689e+00 -7.554206657783435301e-03 -4.071142903988574785e-02 2.181411111195962427e+00 3.012455347794228411e-01 -5.533845448013864354e-01 -2.101454753833687794e-01 5.608729482367229985e-02 1.669476350864885550e+00 2.020530647990698370e+00 -8.697631452719499778e-01 -1.730979554727453962e-01 -1.825064609205037325e+00 -2.183194291369864537e+00 -2.202960002806462647e+00 -5.251490781472440972e-01 -2.683653490055706303e+00 1.073204669218209145e-01 1.849632386636480774e+00 -2.162294421914624287e+00 8.858322901729012155e-01 -3.826276946934876189e-01 -1.397232791123942164e+00 2.345919520893781751e+00 -1.078660282436462864e-01 -8.869001631550413878e-01 -3.979481260329822967e-01 -2.057530746358569917e+00 8.989040131401632161e-01 3.348104581518894785e-01 3.068648301994048921e+00 -1.146198963719735398e+00 -4.679662323051357320e-01 -5.120135640349221529e-02 -3.000024852626131944e-01 -1.030072915755145813e+00 2.055533454911878444e+00 8.747128316367303036e-01 -9.906747003767599757e-01 6.772474431303650455e+00 -9.814485237092607228e-02 -8.986437769046177193e-01 5.238460963187471231e-01 1.122160298351527530e+00 5.135303148327465816e-01 1.819203937377597224e+00 -7.294092324302529073e-01 5.031430187947925070e-01 3.254693248270211114e+00 -7.773384177176982657e-02 -4.395015195513254837e-04 1.084103083714412108e+00 -1.549233067418308019e-01 -1.765672600262283787e+00 -5.078574058974804073e-01 9.649183171585856700e-01 -4.468502149861434680e-01 -6.367169772057864607e-01 -6.419051919556245656e-01 5.298200417846659072e-01 -1.914902694193544974e+00 -8.380070988825617517e-01 -2.094948727185984017e-01 2.482351793757788805e+00 -7.522550433220135391e-01 1.817875714616633331e+00 -2.097157238751335140e-01 -4.558735510503297284e-01 6.527142323139392133e-01 -3.949908945257337156e-01 8.103981875244100630e-01 -8.414762558861589303e-01 1.390870828880227617e+00 -8.727494687733296230e-02 9.375018825767745811e-01 -1.209753789516597289e+00 -6.179415677609584323e-01 1.225526572105300804e+00 -1.288173865680571462e+00 1.723933306447997138e+00 8.412616566925713857e-02 7.737056187446231803e-01 1.748157142229161520e+00 -2.984795281985586080e-01 -2.821107225051184386e+00 1.545138371184099912e-01 -1.335389624977566525e+00 -1.326189032189384998e+00 8.881408665868322228e-01 -1.199842052201529619e+00 1.842844606708605282e+00 -1.751065464757995738e+00 9.197956089319571371e-02 -1.368441267299675523e+00 2.549156554788669649e-01 -7.056027866027382300e-01 1.143025648635438207e+00 9.289783073196362650e-01 -4.646862551323145407e-01 -9.312748821415787193e-01 4.409090829456554506e-01 -8.270439650244739704e-01 2.869779702640657515e+00 7.802001700333822676e-01 -1.602863431993067467e+00 -2.461627215274164449e-01 2.302865852239204703e+00 -5.731696606567016072e-01 1.087540271150241544e+00 -1.287193379947445537e+00 -1.235509744985803238e+00 -7.166933162327163709e-01 3.786343103111994846e-01 -7.022623503302602432e-02 -5.617329931739205584e-01 -1.666548528413664687e-01 1.353250837380704841e+00 -1.037103474212201171e+00 -2.249027959811105426e-01
