# # masses,tags,x,y,z,vx,vy,vz,ax,ay,az
1.000000000000000056e-01,0.000000000000000000e+00,-1.064535431988949538e-01,1.012946689724207872e+00,2.984874977688864117e+00,1.395211965658233189e-01,3.325278597414038639e-02,1.239128926386929175e+00,1.508137323767441140e-01,-3.464761728548812481e-01,-8.776586928229594964e-01
1.000000000000000056e-01,1.000000000000000000e+00,-7.277271090077335192e-01,-3.982309417712021626e-01,7.515452283987742454e-01,7.324800340583282887e-01,7.187998759854867803e-01,-7.743579418005207549e-01,1.924424639979831486e+00,5.293816428421922460e-01,-9.491894974759914616e-01
1.000000000000000056e-01,2.000000000000000000e+00,-1.363305217955908422e+00,-1.741375815226248180e+00,-2.257287049354771202e+00,1.536301854435403680e+00,-1.083210768179396988e+00,-2.841937142173151520e-01,1.440881397107059425e-01,4.140167055324296963e-01,7.047881674914232564e-01
1.000000000000000056e-01,3.000000000000000000e+00,4.625009849513674887e-01,-1.239797507330648585e-01,4.723838920506301386e-02,-3.336950489909636941e-01,1.058886674314635012e+00,-1.646942850968483807e+00,-1.352752990015397172e+00,3.369556586612866500e+00,3.159058384541814757e+00
1.000000000000000056e-01,4.000000000000000000e+00,1.524036677451130695e+00,6.656477921651909879e-01,3.680727190884243716e-01,-1.600389981020397534e-04,1.288411000704890119e+00,1.521473801506348922e+00,-1.998321158223962390e+00,-1.496338386764161754e+00,-3.797429745785002586e-01
1.000000000000000056e-01,5.000000000000000000e+00,-2.606962984735383682e+00,-1.055252598300161493e-01,-9.719631499414846942e-01,4.731957187697349854e-02,1.531982455067164572e+00,-7.557685668236276966e-01,8.865275094740953099e-01,1.879536410253452583e-01,3.270245507136218532e-01
1.000000000000000056e-01,6.000000000000000000e+00,-1.419513208193812881e+00,9.960200008871831212e-01,1.473080263826442859e+00,-1.833737108806147154e+00,-7.497591633666440547e-01,7.508511485210154213e-01,8.782246528580158751e-01,-5.562083860470197205e-01,-6.401299120745940208e-01
1.000000000000000056e-01,7.000000000000000000e+00,-1.371644777360715162e-01,-3.779280961944367356e-01,1.803487882076122650e+00,1.710013059613174069e-01,7.101241060950503892e-01,4.530981757418652833e-01,7.160905390371903323e-01,6.027640073143171184e-01,-2.019745255701993703e+00
1.000000000000000056e-01,8.000000000000000000e+00,7.709825658326582287e-01,8.492132145415776101e-01,-7.326054620634543380e-01,-5.662941862540962212e-01,-1.347298608637289341e+00,4.150358628265285454e-02,-6.939827067194235255e-01,-1.342993608961470686e+00,1.393599361382868551e+00
1.000000000000000056e-01,9.000000000000000000e+00,-1.686209053329265295e+00,-3.850331854533958070e-02,-1.412209261188680287e+00,-6.374000637215755383e-01,-3.759507279864770513e-01,-5.714115456591793984e-01,1.025681101291397335e+00,3.430552630347569881e-02,8.805266314739151889e-01
1.000000000000000056e-01,1.000000000000000000e+01,-4.265118650474052364e-01,-9.932990739423024351e-01,5.400677702756110365e-01,-7.441454323534349991e-01,4.243171851146168572e-01,-6.988694355242098810e-01,6.678205825201533052e-01,2.713868023771746074e+00,-5.433509148403433686e-01
1.000000000000000056e-01,1.100000000000000000e+01,5.709751673607479372e-01,-1.579286272180135065e+00,9.204778974035384698e-01,7.387487598752341400e-01,3.075636983165175864e-01,2.217784075850767478e-01,3.522242625677069472e-01,-1.705378837987800988e+00,-3.521794545497906270e+00
1.000000000000000056e-01,1.200000000000000000e+01,9.407404763542660531e-01,6.459160638662547749e-02,1.356258987180962494e+00,8.197465150060803118e-01,-1.166804025224237318e+00,7.772913840152303466e-01,-1.515689056575811655e+00,3.971592467972637763e-01,-2.170989676783018130e+00
1.000000000000000056e-01,1.300000000000000000e+01,5.236545479535037462e-01,8.246651022586443114e-01,-3.287488195347351705e-01,5.320310693293527349e-01,-1.145938440797684255e+00,5.041932031841106499e-01,3.207990551759739017e-01,-1.213358866759784327e+00,1.235446784863002856e+00
1.000000000000000056e-01,1.400000000000000000e+01,-1.352440990759396638e-02,-1.253714202906441866e-01,6.592184158580587094e-02,5.200453993585474333e-01,6.506169347039955642e-02,-1.926707005928032901e+00,6.120914206318333051e+00,-1.466092924371414571e-02,-2.358245591257525919e-01
1.000000000000000056e-01,1.500000000000000000e+01,-5.212141940780843363e-01,-7.212124682899144767e-01,4.530254848629056696e-01,7.794519071591393677e-01,3.445484016989027731e-01,9.435691067825964229e-01,1.763272611072715934e+00,9.870709048085162252e-01,4.719302328732319363e-01
1.000000000000000056e-01,1.600000000000000000e+01,3.832546725059804427e-01,4.238795026573324853e-01,9.852776579778028676e-01,1.579234815241536083e+00,5.962444477107693430e-01,1.363600871373202850e+00,1.127454134354120896e+00,-1.265779992573441426e+00,-2.742127414677450581e+00
1.000000000000000056e-01,1.700000000000000000e+01,-7.782146686051394369e-02,-3.492749443083443817e-01,-2.000526275311159008e+00,1.002638972061187017e+00,1.372615528939022500e+00,-4.325159163383821559e-01,1.483079745529784499e-01,2.372602949420739848e-01,1.298797332622265932e+00
1.000000000000000056e-01,1.800000000000000000e+01,-4.152788261047566931e-01,1.118080154980537061e-01,5.281055449772261712e-01,-9.710625902161540424e-01,-9.292302183611079736e-01,1.091631769925123854e-02,2.887355450663341649e+00,-7.088865268386135288e-01,-5.496485501781228633e-01
1.000000000000000056e-01,1.900000000000000000e+01,6.774141221420939551e-01,8.603203869965312389e-01,1.083196657290455001e+00,-7.481729689357710100e-01,-5.638814830101359643e-01,1.747141675520871074e+00,-8.092472263637909835e-01,-2.167999992209415527e+00,-1.594831979349837781e+00
1.000000000000000056e-01,2.000000000000000000e+01,1.454932336199507570e-01,2.427435988256914090e-01,1.749881863500854617e+00,1.334596268406325947e+00,-1.013732733207632686e+00,-1.035286686723927568e-02,5.613034562107015457e-01,-5.003004226741972760e-01,-2.252424831294666863e+00
1.000000000000000056e-01,2.100000000000000000e+01,-1.411386752555289226e+00,1.671292180983408038e-02,-8.557806393640053910e-01,-1.449855661997365930e+00,6.068599303336823514e-01,9.041688185479367368e-01,1.239698179624564967e+00,-1.841956104669877359e-01,2.861569433047703725e-01
1.000000000000000056e-01,2.200000000000000000e+01,-1.373941776691648409e+00,-6.801903151120761715e-01,7.431379253240145699e-01,8.908896368512917441e-01,-1.633999539247005028e+00,-3.071224028090376867e-01,1.559756965833279496e+00,5.918410515405289063e-01,-4.276454893492436238e-01
1.000000000000000056e-01,2.300000000000000000e+01,6.694956738549948660e-01,-1.221916632549246012e-01,-2.892465911226828057e-01,-7.706371805560255916e-01,-2.032335414666615936e+00,-1.053288135730209518e+00,3.367912132506838407e-01,9.091971014613127178e-01,3.593181902457210253e+00
1.000000000000000056e-01,2.400000000000000000e+01,2.251695907800538299e-01,-2.725734969155637066e-01,1.186576933612770723e+00,-1.445972087770393433e+00,-4.575605161088572292e-02,2.191697728945974255e+00,3.382222486072148371e-01,-7.483945491082256707e-01,-2.346226338579571191e+00
1.000000000000000056e-01,2.500000000000000000e+01,8.388457466478687063e-01,6.512230131635649011e-01,-1.097385938832978081e+00,6.216178593811853004e-01,1.563031732284924979e+00,-2.891903557555591808e-01,-6.154200574286554648e-01,-4.444550947467481028e-01,1.857136598533383420e+00
1.000000000000000056e-01,2.600000000000000000e+01,-6.242401132952209997e-01,2.063308829634759867e-01,-1.465691856464016674e+00,8.167998961203469799e-01,4.003940584619040122e-01,4.331593722289056037e-01,4.270013748726117497e-01,-4.612228650011679365e-01,1.017906533968195637e+00
1.000000000000000056e-01,2.700000000000000000e+01,4.331885076862968531e-01,5.451939121060427329e-01,6.869837263548341788e-01,-1.226878882337162496e-01,-3.040632730138469464e-01,1.129635148035989189e+00,8.400924594680105884e-01,-3.287539443486263924e+00,-1.262757182057593575e+00
1.000000000000000056e-01,2.800000000000000000e+01,-2.901711970015556918e+00,6.297225816275219268e-01,-7.392827312169545362e-01,-7.394644458081651717e-01,6.831930411367864719e-01,-1.275021918423779654e+00,8.597586242719333915e-01,-3.331875501069806456e-01,1.633347833063681920e-01
1.000000000000000056e-01,2.900000000000000000e+01,-4.191953396727109427e-01,1.700445429633966610e+00,-1.620371977982578482e+00,-1.306132609829883329e+00,7.360408375269497094e-01,1.189472410572337768e+00,2.730201852871700918e-01,-8.474746285992603712e-01,8.595568684277881122e-01
1.000000000000000056e-01,3.000000000000000000e+01,6.117961654391025350e-01,1.400866440078217590e+00,9.331056431966179288e-01,5.220429628637635044e-02,-1.957901696424400040e-01,1.920033852331783697e+00,-2.216344312845176523e-01,-2.039281255860907915e+00,-7.660588509178352101e-01
1.000000000000000056e-01,3.100000000000000000e+01,3.051908211488323364e-01,1.594202094891039867e-01,3.926823860194145754e-01,5.633766299289435509e-01,1.364825203205824344e+00,-5.190651319790600127e-01,1.367291099758122463e+00,-1.987699180818726763e+00,-1.300348982038292744e+00
1.000000000000000056e-01,3.200000000000000000e+01,1.219154897760007517e+00,7.439721890122406034e-01,1.545083808540656412e+00,8.242417049254687766e-01,-1.000151701211203115e+00,-2.751866759148985930e-01,-1.198368391847585368e+00,-8.555227782596037667e-01,-1.580302410651679423e+00
1.000000000000000056e-01,3.300000000000000000e+01,-1.234762171005072018e+00,1.077009347266577599e+00,-1.652306848293892072e+00,4.685548240862368319e-01,5.893008436568980546e-01,1.731343670799693757e-01,6.820216763847682939e-01,-5.349874023595043715e-01,6.945010881795949942e-01
1.000000000000000056e-01,3.400000000000000000e+01,1.044067210226038211e+00,-7.966147098329872112e-01,2.032412856747390362e-01,-1.624901531069389282e+00,3.352155788489062926e-01,6.231923875530752666e-01,-1.650733151616683658e+00,1.709444214757894320e+00,3.781190606718336511e-01
1.000000000000000056e-01,3.500000000000000000e+01,8.657839155715969515e-01,5.247865558735435032e-01,3.916259333186429825e-01,5.830316743971269977e-01,5.452390844246343127e-01,8.941397788060563290e-01,-2.619782225252976104e+00,-1.889849579970859450e+00,-7.902158160848297974e-02
1.000000000000000056e-01,3.600000000000000000e+01,7.825453379294903256e-01,-5.545239995394461996e-01,-1.657168795724725641e+00,9.299697386320856518e-01,-2.083363215915996491e+00,-1.955825508740330898e-01,-5.171685725788028876e+00,-2.462700240854982070e+00,8.775056238172966872e+00
1.000000000000000056e-01,3.700000000000000000e+01,7.881921024042000123e-01,-9.440260400875470914e-01,5.464243549933806010e-01,-9.789701529444098105e-01,-5.406350092498320992e-01,6.561659939137871878e-02,-8.926141932242418475e-01,1.914832294154370507e+00,-5.421632375321402408e-01
1.000000000000000056e-01,3.800000000000000000e+01,-7.260865958405270382e-01,-3.337800721141729321e-01,-1.710364412885317487e+00,1.363830061705292307e+00,1.020203812246159636e+00,-8.396064559623259704e-01,6.227728506820999765e-01,4.639545121080199674e-01,1.169193273340029648e+00
1.000000000000000056e-01,3.900000000000000000e+01,-1.444513198921870245e+00,-1.635147780231191117e+00,3.282886502573865717e-01,1.032349201752369439e+00,-7.195949078527738019e-01,1.542961468875270858e+00,7.416007586838734289e-01,9.178874231022672303e-01,-1.078287570028270068e-02
1.000000000000000056e-01,4.000000000000000000e+01,-6.696593638924506209e-01,1.052119568439271680e+00,-3.104154982412427266e+00,1.519452089516799553e+00,3.424614372499939496e-01,-1.455813860171673690e+00,1.675797760957794813e-01,-2.354729522554348808e-01,7.150729650363896184e-01
1.000000000000000056e-01,4.100000000000000000e+01,9.123132936715158126e-01,-7.792176469235546632e-01,1.417906005207248299e+00,-1.111325281320192593e+00,1.023194826753379694e+00,5.573105871197454597e-01,-1.135893172488642966e+00,1.236880436662222138e+00,-1.419073230695376830e+00
1.000000000000000056e-01,4.200000000000000000e+01,-1.021933480942564865e+00,1.585515914127330894e-01,5.881950385919136881e-01,-1.379299308645848932e+00,-1.277714267856319585e+00,-8.742936598810949755e-01,1.977652860104664345e+00,-5.898331376888794608e-01,-5.802894833391850637e-01
1.000000000000000056e-01,4.300000000000000000e+01,-9.564192672444680188e-01,-2.272946563412524545e-01,-9.452997825016743461e-01,6.361606963570138884e-01,2.802386233494159051e-01,-1.635617057931900986e-01,7.299742628981785719e-01,4.285889797874977702e-01,6.437598585999492196e-01
1.000000000000000056e-01,4.400000000000000000e+01,3.484898391602460621e-01,2.404467047416600778e+00,4.270770807558817439e-01,3.626004466318691888e-01,-1.169299063890942292e-01,4.611061566178864535e-02,-6.509946592957942257e-02,-1.220710585235915246e+00,-8.918424574735046850e-02
1.000000000000000056e-01,4.500000000000000000e+01,1.291556955448749378e-01,-3.389064610094522090e-01,5.085742129701305014e-01,1.469763927252684566e+00,-1.595401467927607619e+00,2.848142710798901689e+00,1.226123805601583988e-01,2.985561243996068370e+00,-6.780953972506545968e-01
1.000000000000000056e-01,4.600000000000000000e+01,1.188748254815232608e+00,2.149280639558701356e-01,9.210821832652611452e-01,4.242636499394753513e-01,-1.137019182246671756e+00,-4.295082350951532901e-01,-2.355708786938018662e+00,2.749052060082013416e-02,-1.235632652642182805e+00
1.000000000000000056e-01,4.700000000000000000e+01,4.513550456609367045e-01,4.782461749307669319e-01,1.328974026588746638e+00,-9.738007187374796148e-02,2.096117486426567034e+00,3.308393926794435669e-01,-7.729013990360687758e-02,-1.102015604102467794e+00,-2.979785062836061815e+00
1.000000000000000056e-01,4.800000000000000000e+01,-2.305225328699292142e-01,-1.520352388707277402e+00,-1.328426117088554959e+00,2.306061780682567286e-01,-2.172170785821415873e+00,1.086847113654506369e+00,2.312554718155041822e-01,9.794740685830620741e-01,6.760460249875960281e-01
1.000000000000000056e-01,4.900000000000000000e+01,1.140317370176273881e+00,4.778359111302199480e-03,-2.004828144440695958e-01,1.226022149966394581e+00,1.534776105467894336e+00,-2.143315425300992061e+00,-3.461336804241929688e+00,8.113068848385941723e-02,1.274624493407419790e+00
1.000000000000000056e-01,5.000000000000000000e+01,6.056795788492859156e-01,-1.698553072840921940e+00,8.273050610139996985e-01,2.078124418243830984e+00,-5.014360740824438389e-01,7.459117775137624751e-01,-9.276125544446429672e-01,4.876594460763435279e+00,2.484382460763506106e+00
1.000000000000000056e-01,5.100000000000000000e+01,9.200297771103640443e-01,5.763281792234060778e-03,-2.087526787637946857e+00,-1.093741731277090734e+00,-2.739787062774188819e-01,-6.825557604258696287e-01,-4.248698146101339002e-01,-3.121288923013549876e-01,1.367869482028953421e+00
1.000000000000000056e-01,5.200000000000000000e+01,-2.571903187628270526e-01,8.492666826277393000e-01,6.501659853260361999e-01,8.359472001207443048e-01,1.352504954478197519e+00,-1.569840452189252833e-01,1.554005926734677745e+00,-1.944819987530795657e+00,-6.031374315142576936e-01
1.000000000000000056e-01,5.300000000000000000e+01,5.810599333885171358e-01,7.508845729924201740e-02,3.205272982260415349e-01,2.806263108599498679e+00,5.633646664189319829e-03,-5.331378998218931908e-01,-2.582773126865708146e+00,-6.318695695255552858e-01,-2.492315908333297081e+00
1.000000000000000056e-01,5.400000000000000000e+01,3.334472075214586773e-01,-4.211258888693315550e-01,1.327308910577846390e+00,-3.770661263890067172e-01,9.657933117741959173e-01,-1.704144073283412997e+00,-9.670593302595619223e-01,2.002973021807357590e+00,-3.533704386397090058e+00
1.000000000000000056e-01,5.500000000000000000e+01,1.655959367301456542e+00,1.003145208337643396e-01,4.638426543613654272e-03,7.475677400480187917e-02,7.032771027257386232e-01,1.952240565090864466e-01,-2.598471453381514973e+00,8.477965547164281190e-01,1.279463999227404170e+00
1.000000000000000056e-01,5.600000000000000000e+01,1.792087053644686900e+00,-1.563094845112838471e-01,-8.037443757391050658e-01,-6.900019567745625526e-01,-4.852809510824133143e-01,1.456968610423603261e+00,-1.371344946071866522e+00,2.761974706311215444e-01,8.746602004820680509e-01
1.000000000000000056e-01,5.700000000000000000e+01,2.030815075908969369e+00,1.212509694860557374e+00,1.099638815040767215e+00,1.331758754819652779e+00,6.768184123888015824e-01,-1.532557165064742044e+00,-1.085610857826745823e+00,-7.024595133941463621e-01,-6.168458118701427573e-01
1.000000000000000056e-01,5.800000000000000000e+01,-3.619645610159031301e-01,1.585376409684557286e+00,-7.776222808886684712e-01,7.206304384513596561e-01,-1.629771927327723635e-01,-1.048207066756014161e+00,5.563031179655809622e-01,-1.050457127129116541e+00,3.913736297737285819e-01
1.000000000000000056e-01,5.900000000000000000e+01,2.457425626321299461e+00,1.623095769094672125e+00,7.122275647925654929e-02,8.161896066317519960e-01,-8.692106066203333925e-02,-5.512004024393999391e-01,-7.217548714639919760e-01,-6.247190739473323928e-01,-8.938912025504751335e-02
1.000000000000000056e-01,6.000000000000000000e+01,1.587711031028052666e+00,2.215064009760000507e-01,2.384115811427933440e-01,-8.477592486475474809e-01,-1.234162507673761816e-01,9.876540424917923389e-02,-2.156021279559090953e+00,-2.779858461071182396e-01,-1.171409401154005048e+00
1.000000000000000056e-01,6.100000000000000000e+01,2.091741518051137394e+00,-6.127116140425822310e-01,-2.184879958670483457e+00,-4.353938588769129536e-02,4.560864936343533294e-01,-7.204185549335295757e-01,-6.151952161623478466e-01,1.633810308856299964e-01,7.130190530698687912e-01
1.000000000000000056e-01,6.200000000000000000e+01,-6.373716991197930781e-01,2.448716159132082737e+00,5.945447722002431545e-01,1.765134293364659379e-01,-4.034047313060802886e-01,-4.404795583808510662e-01,4.891116687810616592e-01,-9.134432035354118629e-01,-1.961743370451503321e-01
1.000000000000000056e-01,6.300000000000000000e+01,3.984624466212863259e-01,1.413104880913221395e+00,4.779420710428920749e-02,-2.325032844502082641e-01,-3.420967628955776663e-01,-4.027117258403486999e-01,4.239471193592831977e-01,-2.213993728435283526e+00,-6.705767458284604687e-02
1.000000000000000056e-01,6.400000000000000000e+01,-2.697123213050230950e-01,-1.986522750767011569e+00,2.425135344093325873e+00,1.031182721044820561e+00,-2.469635349547665726e+00,-5.173649891970402148e-01,1.448419565302871970e-01,6.032281011406503968e-01,-6.490380800740357392e-01
1.000000000000000056e-01,6.500000000000000000e+01,8.185209391469133733e-01,1.633525116467807459e-01,2.527454680471806991e+00,1.598814331699639046e+00,1.280038490497122483e+00,-1.560110146107174245e-01,-3.757079152418137946e-01,-8.052884533867623457e-03,-1.375342112108040027e+00
1.000000000000000056e-01,6.600000000000000000e+01,6.313563051961352812e-01,1.262243304977540490e-02,1.205481612830057447e-01,3.246102601432325763e-01,-1.457408114647078534e+00,-1.984832186731492421e+00,-4.102306984083406327e+00,-2.829850509639130207e-01,2.041665347465794422e+00
1.000000000000000056e-01,6.700000000000000000e+01,1.124561988556920467e+00,-4.197855962236774485e-01,-1.225385112946226096e+00,-4.011389600172683423e-01,1.717647019641558970e+00,1.228955946511922859e+00,-1.067441597812212484e+00,2.988272521374729651e-01,6.779464837997175586e-01
1.000000000000000056e-01,6.800000000000000000e+01,-4.284413816938854869e-02,2.547408408139528180e-01,4.285679019837849713e-01,9.198290984254274827e-01,5.282832412259225174e-01,-2.176170340541612624e+00,2.497608546332526824e+00,-2.081288287825343364e+00,-3.256726596604182511e-01
1.000000000000000056e-01,6.900000000000000000e+01,2.534352474581414771e+00,1.911055800715751873e-01,-4.280805832414886214e-01,6.417067457558525145e-01,1.373560656690969717e+00,1.140361834380190231e-01,-1.358445172264021172e+00,4.092972099704224320e-04,3.032223481077740979e-01
1.000000000000000056e-01,7.000000000000000000e+01,6.295471264233388764e-01,1.190236478106986517e+00,-1.816605473028861939e-01,-1.622784138659559394e+00,-8.068459123038860259e-01,3.493881208818126471e-01,-7.729329532756067378e-01,-2.086031125302341138e+00,7.072755070821279411e-01
1.000000000000000056e-01,7.100000000000000000e+01,-3.262398846094174409e-01,-5.030062811647392218e-01,-7.854865061968218098e-01,-1.075581042685918920e+00,1.432702534765579516e+00,-1.396050280514375075e+00,6.040128826585574595e-01,8.291765599662016539e-01,1.073726350542379970e+00
1.000000000000000056e-01,7.200000000000000000e+01,1.003181468416762673e-01,-1.474028005176367895e+00,-1.351952092113783421e-01,1.475542804320910006e+00,1.726783291547448584e+00,-1.211854359340694742e+00,1.496173019755751565e-01,1.611942711038613529e+00,4.703439003158073062e-01
1.000000000000000056e-01,7.300000000000000000e+01,-1.065991449543142178e+00,1.788404376583352384e-01,1.488898488907375479e-02,1.375685199042861795e+00,-6.337395094342125335e-01,2.912931152003254698e-01,1.601873895290752969e+00,-4.033355569385782546e-01,4.744470253440121188e-01
1.000000000000000056e-01,7.400000000000000000e+01,2.580177340910147166e+00,1.836722312501369414e+00,-6.098435295699267122e-01,-8.762528266575067559e-02,-6.840452390091296409e-02,6.928752813722018900e-01,-6.259155209900543193e-01,-6.162275686637971317e-01,4.520893155112766792e-01
1.000000000000000056e-01,7.500000000000000000e+01,-5.873509221057900964e-01,2.585112843474274058e+00,-8.504101534430462683e-01,-5.262818571793873579e-01,2.780112802151669671e-01,6.140753312760586224e-01,3.014654020561342573e-01,-9.203319770427371704e-01,2.875994599571983223e-01
1.000000000000000056e-01,7.600000000000000000e+01,2.727813517161785106e-01,1.929959611447233103e-01,-1.312800426120463160e-01,1.605154730641242533e-01,-2.487906016813353549e+00,2.701947670053873596e-01,1.011110972355006687e+00,-2.078496543098270255e+00,3.034040665161479744e+00
1.000000000000000056e-01,7.700000000000000000e+01,6.055858697598673901e-01,3.173455480689276187e-01,7.930753750287876658e-01,-1.768889875882514451e-01,1.840974670442724337e-01,2.258011552858453896e+00,-2.280914133353355133e+00,1.369537180753248873e-01,-1.930222833335462962e+00
1.000000000000000056e-01,7.800000000000000000e+01,7.105458034689181579e-01,-5.640461109532908246e-01,-1.559609791036002724e+00,-6.852867493966374735e-01,1.517896800786810441e-01,1.345145518539494045e+00,5.107137716466596089e+00,3.388244582977899544e+00,-6.251819245509260270e+00
1.000000000000000056e-01,7.900000000000000000e+01,9.158825476621105244e-01,-1.124099854187320668e-01,-2.061255222522945796e-01,1.308399231921041128e+00,8.554554116292452104e-01,-1.787807357662420493e+00,-2.096859467504025965e+00,1.884789610519014058e+00,1.367367163099495686e+00
1.000000000000000056e-01,8.000000000000000000e+01,1.981343612086719497e-01,-4.809620966607511816e-01,9.999784998511823675e-01,1.388295780120908374e+00,-7.615416615220397256e-01,-1.924198980386138125e+00,7.046477646021462871e-01,3.187659141355460246e+00,-7.315392904647368688e-01
1.000000000000000056e-01,8.100000000000000000e+01,-1.830826621860981440e+00,-1.796148230567463422e+00,-1.888196045148513580e+00,-1.390467129521497203e+00,1.267479699529040937e+00,-1.300808568814758148e+00,6.457606292817904547e-01,4.914775958352858298e-01,2.257204513430378923e-01
1.000000000000000056e-01,8.200000000000000000e+01,1.059489456533594387e+00,4.702056281162534934e-01,-7.009634787797405786e-02,-7.256597884410387334e-01,1.117699185570516285e+00,-3.210749839656513172e-01,-1.822458353233144202e+00,-1.510058341160554818e+00,1.189391758263024679e+00
1.000000000000000056e-01,8.300000000000000000e+01,-2.400539191158943098e+00,-1.356890771604030821e+00,6.903019924971274257e-01,-8.447290752519995838e-01,7.941566485766545780e-01,9.227193414484786624e-04,8.240243613380181520e-01,4.213338012748890082e-01,-2.061027405901940390e-01
1.000000000000000056e-01,8.400000000000000000e+01,-2.256777495064308692e+00,3.219355772458028508e-01,-1.501726627065506636e-01,-3.457981105403361566e-01,-3.752155124524367280e-01,-7.523113446426304973e-01,9.710566754932308253e-01,-2.077872668473002282e-01,-1.118045147152891272e-01
1.000000000000000056e-01,8.500000000000000000e+01,3.109859799004287551e-01,-8.778974287748705918e-02,2.400655711507625745e-01,-8.087761185011536069e-01,-1.786904868401787638e+00,1.538690705720022311e+00,1.118338010037821295e+00,1.203609707901963422e+00,-4.017130422119530309e-01
1.000000000000000056e-01,8.600000000000000000e+01,-9.101438270109683815e-02,-3.701035343111285236e+00,-1.294671048785515366e-01,-7.968722794623596395e-02,-1.482754205890296939e+00,8.880332445942401565e-01,4.854227118140542335e-02,6.054657502864020380e-01,3.695523361434518289e-02
1.000000000000000056e-01,8.700000000000000000e+01,3.367217922103920458e+00,1.559294358640296307e+00,4.133128277581713667e-02,-6.494020998395726163e-02,2.085654193822316094e-01,1.106110939768832901e+00,-8.296536778927484646e-01,-2.954517529160729516e-01,-1.986504372855842776e-02
1.000000000000000056e-01,8.800000000000000000e+01,-7.940749240636203465e-01,-5.683268630093590845e-01,1.457782220900390113e+00,1.854637526751938381e+00,-1.818701044929677213e+00,1.157078514356917470e-01,1.233778547444086771e+00,5.941416604708924520e-01,-1.380464284559641763e+00
1.000000000000000056e-01,8.900000000000000000e+01,2.758601178811928012e+00,-1.549848774213139713e+00,-2.066821947559072559e+00,2.050196743825028367e+00,2.166003610095776910e-01,-2.509390933372511179e-01,-4.963431558007020961e-01,3.582045946017703986e-01,3.594512143852715558e-01
1.000000000000000056e-01,9.000000000000000000e+01,1.237864966068247669e-01,-3.705295523665171342e-01,1.552625660155471654e-01,1.459401204059408874e+00,5.217331571572988436e-01,-5.627591996745461289e-01,9.874730747072243409e-01,4.597203519991459153e+00,1.108661074228372456e+00
1.000000000000000056e-01,9.100000000000000000e+01,1.830118378791367517e+00,-2.675737827861869089e+00,-1.938057406007031788e-02,1.066754383812779094e+00,-3.273212827043421869e-01,5.740814160198995930e-01,-4.125792507855308155e-01,6.770666286311723958e-01,2.934015284678224630e-02
1.000000000000000056e-01,9.200000000000000000e+01,3.155385834900735209e-01,2.706934024271395067e+00,1.666298404321866045e+00,-4.802913068566528332e-01,-3.254339839449388871e-01,-9.828968429593071265e-01,-6.933637042821490584e-03,-7.732020178575228497e-01,-4.785537042534591667e-01
1.000000000000000056e-01,9.300000000000000000e+01,2.392200709902022049e-01,-6.393260802442873869e-02,7.924163923458094061e-01,-8.902112214332620344e-01,-1.001594394074405203e+00,-7.271807167584631859e-02,3.491084612014632577e-02,2.435027029624314554e-01,-2.291250254817950971e+00
1.000000000000000056e-01,9.400000000000000000e+01,7.537849013595542338e-03,1.135500239626645813e+00,-1.306161780917966420e+00,-4.920682036766786949e-01,-5.855992211583195273e-01,-6.788071673443568654e-01,1.186342378586989627e-01,-7.168208430988531887e-01,1.059023759401036324e+00
1.000000000000000056e-01,9.500000000000000000e+01,8.867612805418516320e-02,-1.206751548451935746e-01,-2.108280389775830238e-02,-1.165972783044657346e+00,8.471858366604695378e-01,-3.810053463160316400e-03,-2.040027817213059813e-01,6.766047381558125684e-01,5.795355006182521862e+00
1.000000000000000056e-01,9.600000000000000000e+01,-5.808618852164316310e-02,-2.605610408114821253e-01,6.576753798164332032e-01,5.830197718958904929e-01,-4.113085384266182420e-01,8.844099637250000256e-01,2.978669336815519486e+00,1.162371708532140779e+00,-2.075859526061071936e+00
1.000000000000000056e-01,9.700000000000000000e+01,5.157627643200599632e-01,5.271766650018833156e-01,4.106759345140401640e-01,-1.273340368629033659e+00,-1.024276363607388163e+00,-3.137433936241578181e-01,-2.024236476191998702e-01,-2.957140841521765928e+00,1.113509595576475775e+00
1.000000000000000056e-01,9.800000000000000000e+01,-1.765175419288491199e+00,2.689483432200404089e-01,3.851347668069344810e+00,-1.072316514667742693e+00,-5.574800885229392877e-01,2.596827822824228638e-01,2.619193307515650382e-01,-2.589397115654299211e-02,-4.557481832351423789e-01
1.000000000000000056e-01,9.900000000000000000e+01,1.060848181882413366e+00,-1.093848647838851385e+00,-1.430408936730046543e+00,1.776643344377012879e+00,-4.969883350569843650e-01,1.047672447679603991e+00,-6.200046453919135780e-01,1.319130515614043375e+00,7.371366958950201775e-01
