# # tags,masses,x,y,z,vx,vy,vz,ax,ay,az
1.000000000000000000e+00 1.000000000000000000e+00 9.301836466609836318e-02 9.048700580957037554e-01 1.997794644961636834e-03 8.624101677491001761e-01 2.277017252765081157e-01 3.269805829952661114e-01 6.655031695982805973e-01 5.800401728657951228e-01 5.586889672040230570e-01
2.000000000000000000e+00 1.000000000000000000e+00 6.830940693131115626e-01 2.389235799178148767e-01 4.608334309371654447e-01 1.637275329595200279e-01 3.190060808825638805e-01 1.018492439903188052e-01 7.056076284940571153e-01 1.224154166998983051e-01 7.253120504766340515e-01
3.000000000000000000e+00 1.000000000000000000e+00 2.471769658808236070e-01 1.751064580815417937e-01 2.308862672594362841e-01 7.790717883059190552e-01 7.066008824246017284e-01 7.115977572864230494e-01 5.680368824158000818e-01 8.706670757746930445e-01 3.164501885336801212e-01
4.000000000000000000e+00 1.000000000000000000e+00 4.647404482638950451e-02 9.192356313491595321e-01 2.396731449018957294e-01 7.186441741300720887e-01 2.956672596877947257e-01 6.127042928009561740e-01 4.630789478611452292e-02 4.255527925419740898e-01 7.401651341801159800e-01
5.000000000000000000e+00 1.000000000000000000e+00 4.408553028705094468e-01 8.321299989250339202e-01 1.004795487155526468e-01 1.031142266911804217e-01 3.668343593221005117e-01 2.729318643620435303e-01 5.044449955687779763e-02 8.081124803137785806e-01 3.410161499465853563e-01
6.000000000000000000e+00 1.000000000000000000e+00 5.741104967878463139e-01 2.581923036710780384e-01 1.037866902949938774e-01 1.332390412258888102e-02 1.459284849671910189e-01 9.720786864281444339e-01 4.834799388425288225e-01 9.855564352970412889e-01 4.377605301651793512e-01
7.000000000000000000e+00 1.000000000000000000e+00 8.652922596389529541e-01 1.362420464931755060e-01 3.459385523594422640e-01 9.090130721273598224e-01 5.702688869013962103e-01 5.577725297585884867e-01 7.756927898237393482e-01 1.110293781305347061e-01 2.196049432652248390e-01
8.000000000000000000e+00 1.000000000000000000e+00 6.477716467304878156e-01 1.730714304925802249e-01 1.417519867956845703e-01 6.919479490366861052e-01 7.334607637220269538e-01 6.980498110455506389e-01 2.072247570666951866e-02 5.466390620967969127e-01 8.620532108942486893e-01
9.000000000000000000e+00 1.000000000000000000e+00 1.598787479137375733e-01 2.094434854180664551e-01 4.865214779187824190e-01 8.612917712663300529e-01 3.521878526536924570e-01 9.956591200121043261e-01 2.357999018188756679e-01 4.420847726122130172e-01 4.555617811363831260e-01
1.000000000000000000e+01 1.000000000000000000e+00 4.030743320918654948e-01 7.756128542170314111e-01 3.475340585471035082e-01 8.690075481143980651e-01 7.402731120526804265e-01 8.966457210288926172e-01 3.560115121793201443e-01 1.574391817328688603e-01 2.954838552485261616e-01
1.100000000000000000e+01 1.000000000000000000e+00 6.922799712688624263e-01 3.449739711393762231e-01 5.313171757054324651e-01 6.937689031845881704e-01 1.936551818868276209e-01 4.474301313445667727e-01 7.996202436784347611e-01 4.487924100737725741e-01 9.767718383594901077e-01
1.200000000000000000e+01 1.000000000000000000e+00 3.320881909193259540e-01 9.171589948620203492e-01 6.880614708095043053e-01 5.624937831798565435e-01 8.206362818681453009e-01 7.516430713734947311e-01 8.043173312705743649e-01 1.322584672558552166e-01 8.222287985153149403e-01
1.300000000000000000e+01 1.000000000000000000e+00 2.531236742013770469e-01 9.915177214953707630e-02 3.764284795589567523e-02 1.102581809916070021e-01 1.306850702930387742e-01 9.983710178596590934e-01 7.579975554927232961e-01 9.587875751367597177e-01 5.889142129543756266e-01
1.400000000000000000e+01 1.000000000000000000e+00 7.579420047410179162e-02 3.247980322191521552e-01 5.338581400254349685e-02 9.707910312631662375e-01 9.993803877950048209e-01 3.343920713844026338e-01 8.292095757702746539e-01 3.196779730673785513e-01 3.033242606604539260e-01
1.500000000000000000e+01 1.000000000000000000e+00 3.140669736141226132e-01 8.323335004614836885e-01 4.219452499599536388e-01 5.258118994203753171e-01 5.960670112770457552e-01 9.736090354870106101e-01 2.174722667597136505e-01 1.989022615695072993e-01 6.796841595875596775e-01
1.600000000000000000e+01 1.000000000000000000e+00 6.846979895719241815e-01 4.951197690466830892e-01 4.488183369697877900e-01 1.427632183731023519e-01 3.995099387820486569e-01 5.847279985076804243e-01 7.030422399763791574e-02 2.600839414735556243e-02 3.302687207938508340e-01
1.700000000000000000e+01 1.000000000000000000e+00 9.451465635558852219e-01 9.933242892698951332e-01 1.529770829758563266e-01 6.153413638264395580e-01 8.714855371238310333e-01 7.516424365144038777e-01 7.887037426285523622e-01 2.976851720685088631e-01 4.532028407517687540e-01
1.800000000000000000e+01 1.000000000000000000e+00 6.065412317573612988e-01 6.506413642178107137e-01 5.905251805489857286e-01 1.726308996989063260e-01 3.151603241306507597e-01 9.685921838378221960e-01 7.752263761238705753e-01 5.270112128749617764e-01 7.948706768930404731e-01
1.900000000000000000e+01 1.000000000000000000e+00 3.211459467725266137e-01 2.962047408279580019e-01 5.271033788880267190e-01 8.509053914692259468e-01 4.563564390622431022e-01 5.877284174894108482e-01 3.273701614626278733e-02 5.152298134631549953e-01 6.740353793086825140e-01
2.000000000000000000e+01 1.000000000000000000e+00 1.386852482491440774e-01 1.438056039920946327e-01 7.277432581566971592e-01 2.128162688142481995e-01 1.696423489699262488e-01 9.393350442537875544e-01 9.574175820205772514e-01 7.799183110117602347e-01 7.155603099442113813e-01
2.100000000000000000e+01 1.000000000000000000e+00 1.286860508506004752e-02 3.490460020573317168e-01 2.385777009423921680e-01 6.176968814877678016e-01 3.477272638883480704e-01 1.727874702696149400e-01 6.872750621248536751e-01 1.067762816781138158e-01 3.658232774152270217e-01
2.200000000000000000e+01 1.000000000000000000e+00 3.713636961634206868e-01 5.487519494500945338e-01 5.667228634752773386e-01 3.787510430214452439e-01 5.899175293875050796e-01 6.120884738077572162e-01 7.999154646494024412e-01 1.996359146033610532e-01 7.490785770748731309e-01
2.300000000000000000e+01 1.000000000000000000e+00 6.842751381827273383e-01 8.999436078660009164e-01 3.820564266573960310e-01 4.018217933422517651e-01 2.188223941127251937e-01 7.968191612714646821e-01 7.759509529699017971e-01 6.555437827787977678e-01 8.083212810899252920e-01
2.400000000000000000e+01 1.000000000000000000e+00 4.693304359236496470e-01 4.794782771716769032e-01 2.125625030162272555e-01 7.337038495345854505e-01 5.614727816834832463e-01 1.565587855390031535e-01 3.011756513879720876e-01 6.706533031579411386e-01 4.015309783765684815e-01
2.500000000000000000e+01 1.000000000000000000e+00 8.372211544199659183e-01 7.399225822623063387e-01 8.663779935998241477e-01 1.096149039251259616e-03 5.073162672078994628e-01 9.283057243317360818e-02 5.959533807273090789e-01 1.372737151393553789e-01 6.259517717690302741e-01
2.600000000000000000e+01 1.000000000000000000e+00 8.328008401492800195e-01 3.174235505603465457e-01 4.101181281081108798e-01 5.328383172121728961e-01 2.940315802321841199e-01 2.835329235851979934e-01 5.083830979109057457e-01 2.150671529567503848e-01 1.114634785101769054e-01
2.700000000000000000e+01 1.000000000000000000e+00 9.809007615717088013e-01 7.799487917366016987e-01 9.388431797350712538e-01 4.353754944635250812e-01 5.841719709811700190e-01 4.954022404477059771e-01 9.933721788126470553e-01 7.904854938121322894e-01 3.996469815388751234e-01
2.800000000000000000e+01 1.000000000000000000e+00 9.994501974672517219e-01 4.177025014784713219e-01 7.507455411056522809e-01 4.737804568801795568e-04 3.533018919248599454e-01 8.916670510998465637e-01 6.689469013577242773e-01 6.786867670573656364e-01 3.136942710326497963e-01
2.900000000000000000e+01 1.000000000000000000e+00 4.620826007317856421e-01 9.903064805375044743e-01 8.276753687540447935e-01 7.126926931077228744e-01 5.286019821163175925e-01 5.108802717846000485e-01 3.238465269538484126e-01 4.438024274672646152e-01 4.161473328360144608e-01
3.000000000000000000e+01 1.000000000000000000e+00 1.744630756808505101e-01 2.445104726614799606e-02 7.683009492784350636e-01 7.968449408941592482e-01 8.954776925945233668e-01 2.330731000468506675e-01 4.682171142374044193e-01 1.924070645251978462e-01 2.437525157402302689e-01
3.100000000000000000e+01 1.000000000000000000e+00 3.985681924163002599e-01 5.507849917906944004e-01 5.665851368657314202e-01 5.483788335776498268e-01 6.625026840902614733e-01 4.817618149164106800e-01 5.543902565864814447e-01 2.542760089065558837e-01 1.729509415915013726e-01
3.200000000000000000e+01 1.000000000000000000e+00 9.120781607926620183e-02 4.042745382737953364e-01 9.218618816513319825e-01 4.049965024014395842e-01 3.609447386691413406e-01 9.934134533357099617e-01 2.168794538979256226e-01 4.117782582383848755e-01 6.752166422824462666e-01
3.300000000000000000e+01 1.000000000000000000e+00 3.618508243817676329e-01 2.565769351583274682e-01 1.551078370856522337e-01 7.064711830636675183e-01 6.496641368620929002e-01 4.779854742525992961e-01 5.419567467555963525e-02 1.625334151351679468e-01 6.309780161974497537e-01
3.400000000000000000e+01 1.000000000000000000e+00 3.575710167488940217e-01 7.465305742247804188e-01 3.316939429184880828e-01 5.636488388870437571e-01 1.633992461618857250e-01 2.700374618884099354e-01 5.937182938521182729e-01 1.462359295065966958e-01 6.981368148903532855e-02
3.500000000000000000e+01 1.000000000000000000e+00 4.058256313350738775e-01 7.743183871804115714e-01 9.540453166631787107e-01 6.914871781867225620e-01 2.082694616585162306e-01 2.306258592832431953e-01 1.767181688728070021e-01 1.737782336938362704e-01 3.400903609263415950e-01
3.600000000000000000e+01 1.000000000000000000e+00 8.933838211295397347e-01 2.845393683476550306e-01 6.293947640272290478e-01 6.970568620488403200e-01 6.103056209191842774e-01 2.046261163861580190e-01 8.326559288624082455e-01 3.080057539115971244e-01 2.275136790452514379e-01
3.700000000000000000e+01 1.000000000000000000e+00 2.967760384178420585e-01 9.226593071110578137e-02 5.774600707521893028e-01 9.507516703810257042e-01 3.132057839116025866e-01 3.357378593737131434e-01 4.408462567897811768e-01 3.560110411059337343e-01 5.251149743370664424e-02
3.800000000000000000e+01 1.000000000000000000e+00 4.596284398741072863e-01 7.928102147024566060e-01 6.643515898714762447e-01 1.600658459403581091e-01 3.720179301390398319e-01 3.963331057636079180e-01 3.741641903111370127e-01 5.203874193788228242e-01 6.398862363685789978e-01
3.900000000000000000e+01 1.000000000000000000e+00 6.979354061027357448e-01 3.384202711563002453e-01 9.142555523849114074e-01 3.777394633983444105e-01 4.976459900262073521e-01 1.601145009772467764e-01 4.919603185108851751e-01 6.571392145080613423e-01 4.915833843558821137e-01
4.000000000000000000e+01 1.000000000000000000e+00 3.703587773396180838e-01 1.941003171348976153e-01 4.304408761720066590e-01 8.615157207370524040e-01 2.041579414861046660e-01 8.723106223833976269e-01 8.160712344666851692e-01 8.226792796389470475e-02 9.279293711447278437e-02
4.100000000000000000e+01 1.000000000000000000e+00 8.742856797174576311e-01 6.236226142073569845e-01 9.065310996760354012e-01 5.915814107496147889e-01 4.173399755524817012e-01 4.816432438189905962e-01 9.926095643358441301e-01 7.636825829075822858e-01 9.637736034322161860e-01
4.200000000000000000e+01 1.000000000000000000e+00 7.781557820328536268e-01 6.812625313541915695e-01 4.433491916990967008e-01 2.048981646812626511e-01 1.872319240599948920e-01 3.509321035014536516e-01 1.937561304414882057e-01 1.881705687268333538e-01 6.108299859461218118e-01
4.300000000000000000e+01 1.000000000000000000e+00 6.976243712883264392e-01 7.208344255040172177e-01 8.759341325171642323e-01 9.126424060397660964e-01 8.496526142956378758e-01 7.933359110981131890e-01 5.972485643014698864e-01 9.404970943660518889e-01 5.437221341864453272e-01
4.400000000000000000e+01 1.000000000000000000e+00 5.697824117167445968e-01 1.544175357017733008e-01 8.191407292341532642e-01 5.751936515740863065e-01 4.050140390774301657e-01 2.737562276543590301e-01 3.229179669702174627e-01 9.135439562835656613e-01 9.249096712339860415e-01
4.500000000000000000e+01 1.000000000000000000e+00 4.718042183431352399e-01 6.538445332287861067e-01 2.217254526021411598e-01 7.215281238020497812e-01 5.485959586315150016e-01 6.340282196174720220e-01 8.039370896045606729e-01 9.436331838576575981e-01 4.043931027797794675e-01
4.600000000000000000e+01 1.000000000000000000e+00 3.790083002147119906e-01 1.868965242965201501e-01 3.741824526578585441e-01 5.199962266236582975e-01 2.989656243036581396e-01 9.356691816651179217e-01 5.460265827533820060e-01 9.184016666775651760e-01 3.691677194180080779e-01
4.700000000000000000e+01 1.000000000000000000e+00 8.930979721940585092e-01 3.464471504964090620e-01 2.787056892785602091e-01 9.008556592571744792e-01 8.446962177170905806e-01 4.153313671776082128e-01 7.013458601820032889e-01 8.733174802263388159e-01 3.259762197891810098e-01
4.800000000000000000e+01 1.000000000000000000e+00 5.868198138389755236e-01 1.722290715238470327e-01 7.723684326266637701e-01 6.826123817108771252e-01 7.379149188843825424e-01 5.369227043018472978e-01 4.631171755294080095e-01 7.883717069691227319e-01 4.464085978102478869e-01
4.900000000000000000e+01 1.000000000000000000e+00 4.477257406197563405e-01 1.875038769363541746e-01 4.002850641675391730e-01 4.771952241698088626e-01 9.738328873981997313e-01 2.690115740124622290e-01 2.100329454776644900e-01 1.531609550000188058e-01 3.448450571721169977e-01
5.000000000000000000e+01 1.000000000000000000e+00 7.861581192247468763e-01 3.455505626470147806e-01 8.252312248521377347e-01 7.800370342807172452e-02 9.259104643023686743e-01 6.746629330256338486e-01 7.880698274514381652e-01 3.321229176621637302e-01 2.275003990397478359e-01
5.100000000000000000e+01 1.000000000000000000e+00 6.031529049697722522e-01 4.480769163797261312e-01 1.687948937659322635e-01 1.060279809169262233e-01 6.773319350817755824e-01 5.269586553675633667e-01 1.817390878659111975e-01 5.424142733704202524e-01 8.656572829487718668e-02
5.200000000000000000e+01 1.000000000000000000e+00 7.736195834194224963e-01 8.056672986222328525e-01 4.121968622972249641e-01 1.366637869200926225e-02 7.903681660667641884e-01 8.910048215810657535e-01 9.897483052747690913e-01 6.136252530476880018e-01 3.231336181081014836e-01
5.300000000000000000e+01 1.000000000000000000e+00 2.221977668297060449e-01 8.945083343727412428e-01 9.085141818561269789e-01 6.220502310853320838e-01 4.319432150810665894e-01 4.158707878135473601e-01 1.640236213707816360e-01 6.176969329890112936e-01 4.117383394198664837e-01
5.400000000000000000e+01 1.000000000000000000e+00 1.323580416409605442e-01 3.124773271930136875e-01 3.163986370940480297e-01 1.017507506958578167e-01 1.960532366222798029e-01 7.284403351283256223e-01 6.022403620745520048e-02 2.932065378710206893e-01 7.398118179718127241e-02
5.500000000000000000e+01 1.000000000000000000e+00 6.291887639646468466e-01 7.650047561814657948e-01 9.898201882659899420e-01 4.814371866280386936e-01 4.301115854559165452e-01 7.052287574652824631e-01 7.568061735621095520e-01 3.386645441559602565e-01 3.481594939645844544e-01
5.600000000000000000e+01 1.000000000000000000e+00 1.865699661888692296e-01 5.135266612425004595e-02 1.687042193643749632e-01 9.478822469813071860e-01 7.272198145211525855e-01 7.530233715502294700e-01 1.686291153918546559e-01 5.854859631531008635e-01 1.263484182108938203e-01
5.700000000000000000e+01 1.000000000000000000e+00 4.354569843010624997e-02 3.341037300236739949e-01 5.331619245125357454e-01 4.434281469296188494e-01 6.527025076817799532e-01 1.940604906647604988e-01 4.045677239417287963e-01 2.858887044925633170e-01 8.925088405340575459e-01
5.800000000000000000e+01 1.000000000000000000e+00 6.025322486801185651e-01 5.486051082058143180e-01 6.730129258931329961e-01 1.023163138852607457e-01 1.798695754764277899e-01 1.665424086162790029e-01 2.071869381324379367e-01 6.360211858730656642e-01 3.304083824229722133e-01
5.900000000000000000e+01 1.000000000000000000e+00 8.999957447422693990e-01 9.949761475069796024e-01 2.971867458269281670e-01 1.176228053586803046e-02 6.835733435264622626e-01 5.232491876846889767e-02 7.128344219721083341e-03 9.197795790640151958e-01 3.469141020586024027e-01
6.000000000000000000e+01 1.000000000000000000e+00 8.437606572242649650e-01 6.740524341351472604e-02 3.041420742987184234e-01 7.652495837795720846e-01 4.966887383014492174e-01 3.400829144452466313e-02 9.879870013830083231e-02 6.260553128110943888e-01 8.837449889826458627e-01
6.100000000000000000e+01 1.000000000000000000e+00 2.755140198016478026e-01 6.683762554120440402e-01 7.477573779980328794e-01 5.568273486556759577e-01 1.000477420597130074e-01 4.392910851011633255e-01 3.323069483703898763e-01 2.373581822620318693e-02 1.740872734249532261e-01
6.200000000000000000e+01 1.000000000000000000e+00 6.059384201850455121e-01 8.105131206717314241e-01 1.862624296942984037e-01 1.079539088331898933e-01 1.064613179524853681e-02 6.169106476889064661e-01 6.812228636147770189e-01 8.335979052330187988e-01 4.458666749581016164e-01
6.300000000000000000e+01 1.000000000000000000e+00 2.083657942570569244e-01 2.198321949445936063e-01 5.275817788865756475e-01 7.485573282067181644e-01 1.392874509338146716e-01 7.017889229432120457e-01 4.035621762426652159e-01 1.653022237637347125e-02 6.618583019612395146e-01
6.400000000000000000e+01 1.000000000000000000e+00 4.428998356417530591e-01 3.554419043581967808e-01 9.869049348400302790e-01 5.171829774754934661e-01 6.268828572633892149e-01 3.802910650294620831e-01 6.819241295028605210e-01 3.157846481157855489e-01 3.433136357009669570e-02
6.500000000000000000e+01 1.000000000000000000e+00 5.744122945306489036e-01 3.027718884208160377e-01 7.912100700119957253e-01 8.455754256169445426e-02 4.624418830801499958e-01 1.511772464632413771e-01 8.890713553270209735e-01 7.171561830002028959e-01 6.342048937257636076e-01
6.600000000000000000e+01 1.000000000000000000e+00 1.766090692781566718e-01 2.735923844725687282e-01 5.739090706491829508e-01 9.652999657841987435e-01 3.450641740147519787e-01 3.074054181526389984e-01 6.476984081128069892e-01 2.798939525688778351e-01 6.654603619604371190e-01
6.700000000000000000e+01 1.000000000000000000e+00 5.988970944171015942e-01 4.455419772779467547e-02 5.417850486841013780e-02 1.484055189235018446e-01 3.315405407285938466e-01 9.922166414023866343e-01 5.312981799450438025e-01 1.388697527945133015e-01 1.430910052952824030e-01
6.800000000000000000e+01 1.000000000000000000e+00 7.421599456193650468e-01 7.599050480002691454e-01 9.776263506326107189e-01 1.817568861593503726e-01 3.297264997394905306e-01 4.008466547079982956e-01 7.880042588483806565e-01 2.297670406461203019e-01 1.539973974522446110e-02
6.900000000000000000e+01 1.000000000000000000e+00 5.210282077077056373e-01 1.712794292988704115e-01 8.361701128617505807e-01 2.496284650132134519e-01 3.904011551058796936e-01 2.217158683813040820e-01 5.182949748312098981e-01 3.752068847049393474e-01 8.473954283269951038e-01
7.000000000000000000e+01 1.000000000000000000e+00 5.817403468493886898e-02 7.763804274813138617e-01 1.029303053214432051e-01 1.341293988271452520e-01 3.566357066809470178e-01 7.426818927373963763e-01 4.317641679188822801e-01 3.237286593279136149e-01 5.521608820152086317e-01
7.100000000000000000e+01 1.000000000000000000e+00 8.042221967125197102e-01 9.076788901236907403e-01 9.601840243166290811e-01 4.183751502550677737e-01 2.361026574297362401e-01 8.323303237517327702e-01 6.923436842645356304e-01 8.341322642573627544e-01 1.920027892067854847e-01
7.200000000000000000e+01 1.000000000000000000e+00 4.161828280697708049e-01 4.319549241492769420e-01 2.951424328723938340e-01 9.952847471856005601e-01 5.834022979578319390e-01 6.296186612816168093e-02 1.065235588636505026e-01 7.839392567119463084e-02 9.821279069047917920e-01
7.300000000000000000e+01 1.000000000000000000e+00 2.791313951607471422e-01 7.994271381032711510e-01 7.035387699074170387e-01 1.441770349278007624e-01 2.515649687584826655e-01 2.564138789456429368e-01 8.157231086686472787e-01 8.089974870951351926e-01 4.018621656287399979e-01
7.400000000000000000e+01 1.000000000000000000e+00 2.254187880696486568e-01 7.115783679418782315e-01 7.554167083157413698e-01 5.426971429627410748e-01 8.559830128783949554e-01 9.077560535663073971e-01 8.413867505664317514e-01 1.476528900279786560e-01 5.046139198972361406e-01
7.500000000000000000e+01 1.000000000000000000e+00 9.150434809943759351e-01 8.780272194989824364e-02 1.116960989145667771e-01 1.699766577367318732e-01 8.267321532331176615e-01 1.855859566840178942e-01 4.197524855205722050e-01 9.412530284148186155e-01 2.180843050637498726e-01
7.600000000000000000e+01 1.000000000000000000e+00 2.568811852521608596e-01 3.695431255869574549e-03 3.168275952362303860e-01 3.588514160136215825e-01 3.046518988721714782e-01 1.983892669544395915e-01 4.996105496649364541e-01 5.527647016486332276e-01 7.505135787405078363e-01
7.700000000000000000e+01 1.000000000000000000e+00 7.124992114748914807e-01 6.720370601392825494e-01 7.825475150505037947e-01 2.431240744195750647e-01 8.478899851649924768e-01 6.072546056887756505e-01 2.700736102793336313e-01 4.550203597616508944e-02 5.488083768687269659e-01
7.800000000000000000e+01 1.000000000000000000e+00 8.416459292246735169e-01 7.357753100443249483e-01 7.029051485615949169e-01 2.531178894256237433e-01 9.504121381688277470e-01 1.438069529315038064e-01 4.974516156417867485e-01 5.430434189871194972e-01 3.651554906987478644e-01
7.900000000000000000e+01 1.000000000000000000e+00 8.900702147207688597e-01 5.365083654940837610e-01 9.374625173771466979e-01 5.446900117545738773e-02 8.637908911396143807e-01 8.022853841095112237e-01 9.624250508201565024e-01 3.881084366911844441e-01 3.236112271645970040e-01
8.000000000000000000e+01 1.000000000000000000e+00 3.449841203085439734e-01 8.975087801705152746e-01 1.041548583708354903e-01 6.320910111998970793e-01 4.517534829406095742e-01 4.290495210212810218e-01 2.807269156424682111e-01 5.488155500516911367e-01 7.887514943897552255e-01
8.100000000000000000e+01 1.000000000000000000e+00 3.816035380464121163e-01 6.347962273066996008e-01 8.770716030147107656e-02 4.455188380974181017e-01 3.710650905583979808e-01 5.911739677002414428e-02 3.948456670641794508e-01 4.351502528964280581e-01 7.680806888800265630e-01
8.200000000000000000e+01 1.000000000000000000e+00 9.700516417756354093e-01 9.323771147674807525e-01 4.926418348824290749e-02 9.785044585375735071e-02 6.955531959468257419e-01 3.693607636920169801e-01 1.058376389481153756e-01 7.495779933637580772e-02 2.599509375609625472e-01
8.300000000000000000e+01 1.000000000000000000e+00 6.456069202121562656e-01 9.171742489710367208e-01 8.103192365835126809e-01 5.218697099948719220e-01 3.248434462840883441e-01 3.289394137704524379e-01 3.546972100772387559e-01 8.704595430541270940e-01 7.140972118218839038e-01
8.400000000000000000e+01 1.000000000000000000e+00 8.950972752921148023e-01 4.034497236073957271e-01 1.440202707680428018e-01 8.368877811161522517e-01 6.235998815152613561e-01 7.236638509429860200e-01 2.716546091835657650e-01 2.965470118051009019e-01 3.158286800893158608e-01
8.500000000000000000e+01 1.000000000000000000e+00 8.368676160995828228e-01 1.218839906291986352e-01 5.697594861473964656e-01 6.509093324872877728e-01 2.550550858024808187e-01 2.584464445312266712e-01 5.372917425121058743e-01 8.982750556122106600e-01 2.327800744993846482e-02
8.600000000000000000e+01 1.000000000000000000e+00 4.303408769981752480e-01 5.011378340482655069e-01 1.195037909036271717e-01 4.500530631438953710e-01 3.042229705810622908e-01 1.900123980133461288e-01 2.617303681652474179e-01 8.470896139165380312e-01 4.685957048047262319e-01
8.700000000000000000e+01 1.000000000000000000e+00 7.101568148727858132e-01 8.370333143771947482e-01 5.991319237994078284e-01 5.420923282635106144e-01 7.431065746128621141e-01 3.642029870439035255e-01 4.744027286395752219e-01 4.897327799619264344e-01 7.034013929027473910e-01
8.800000000000000000e+01 1.000000000000000000e+00 2.773235561007897365e-01 5.629666550082581544e-01 8.752564915811034130e-02 4.198360447053641753e-01 5.551275820753426293e-01 2.554404360067054069e-01 7.400981311003409502e-01 9.407043353325553747e-01 5.412030933602975935e-01
8.900000000000000000e+01 1.000000000000000000e+00 5.037467507505324349e-01 1.647000846668605911e-01 1.314345681322004467e-01 9.427745319246432221e-01 8.623941929116053506e-01 6.788919357583124148e-01 6.708423873395557013e-01 2.163824934911294795e-01 4.897533246546421637e-01
9.000000000000000000e+01 1.000000000000000000e+00 1.862447889308118665e-01 4.942739001610307881e-01 7.711783961533335008e-01 5.090658430748742358e-01 2.196121110170465851e-01 4.365240824459338809e-01 6.053855273799091385e-01 1.298034981913489538e-01 9.553443350461040540e-01
9.100000000000000000e+01 1.000000000000000000e+00 3.493658816877620588e-02 9.591955301611841955e-01 3.933308438267069107e-01 8.425609556244774145e-01 3.070322167145104197e-01 9.856502913372807706e-01 6.632086708770564831e-01 3.913572098605463401e-01 5.275205547708419207e-01
9.200000000000000000e+01 1.000000000000000000e+00 7.748711941314345708e-01 3.544155917695024360e-01 7.108837113053654289e-01 5.791452552314840796e-01 7.661496998438631634e-01 7.141103267692165968e-01 8.924681044688876908e-01 1.995104625134060949e-01 5.675370602893026195e-03
9.300000000000000000e+01 1.000000000000000000e+00 3.281803028344720818e-02 6.660510515921241881e-01 4.510877768040397751e-01 4.771673372951072967e-01 7.777024795632154763e-01 3.144244984346566962e-01 8.781487933742226915e-01 5.133838223120418265e-01 4.070724538280381388e-01
9.400000000000000000e+01 1.000000000000000000e+00 9.908548250140913893e-01 2.092555049217098562e-01 5.039656719535011709e-01 9.694481808633674813e-01 2.802112987620030138e-01 7.967057845154061901e-01 9.745708601327118803e-02 1.215687926061546076e-01 9.848239412209421895e-01
9.500000000000000000e+01 1.000000000000000000e+00 7.585066605267198891e-01 8.031281274633567113e-01 1.887787046767868127e-01 2.601184470362450929e-01 6.334277382592328198e-01 4.120131871698650139e-01 8.940875609638407884e-01 2.077751692085557655e-01 8.628406911621233633e-01
9.600000000000000000e+01 1.000000000000000000e+00 2.806002257843760450e-01 1.421915469854487801e-01 9.281874115573715001e-01 1.694438935723265871e-01 2.202251156696428680e-01 4.585413104089087755e-01 7.482490383103890252e-05 3.321093478137375765e-01 5.101815138408127837e-03
9.700000000000000000e+01 1.000000000000000000e+00 7.860161242948845439e-01 4.576148473027975561e-01 5.686468051145677771e-01 3.781794174853436719e-02 1.957741490840030352e-01 3.094427531061679781e-01 6.069711107547980378e-01 9.152997669755207344e-01 3.169368454058841822e-01
9.800000000000000000e+01 1.000000000000000000e+00 5.129938455655075336e-01 4.949552003225921037e-01 4.168031950782318251e-01 6.603930017050156920e-01 7.125293057652060114e-01 9.998632842174959290e-01 5.481076759625780337e-01 7.889244515857241069e-02 5.117276362185677607e-01
9.900000000000000000e+01 1.000000000000000000e+00 1.114032975259739988e-01 5.764074099184890443e-01 3.614409931745450333e-01 6.999733440736455314e-02 4.099901638612569732e-01 7.128883794669155227e-01 6.122946656334943283e-01 2.240035035358878268e-01 7.947890322800287288e-01
1.000000000000000000e+02 1.000000000000000000e+00 6.680164736426172922e-01 1.498873130359962280e-01 4.939298963438576440e-01 1.829342536655822471e-01 2.375237505310545671e-02 4.726557375903115421e-01 7.683869087022676680e-01 7.607012709427786179e-01 7.144754774770417649e-01
